"Time (s)","Linear Acceleration x (m/s^2)","Linear Acceleration y (m/s^2)","Linear Acceleration z (m/s^2)"
3.610569871E1,2.186834812E-3,-2.538108826E-1,-3.644354343E-1
3.611369391E1,-1.937606335E-1,-2.239151001E-1,-4.748485088E-1
3.612168964E1,-1.912884116E-1,-2.492170334E-1,-5.570945740E-1
3.612968530E1,-1.383328438E-2,-4.348535538E-1,-6.139373779E-1
3.613768172E1,2.447684407E-1,-6.922197342E-1,-5.947406292E-1
3.614567654E1,4.609357119E-1,-9.089756012E-1,-5.079896450E-1
3.615370181E1,5.937505960E-1,-1.131118774E0,-4.430336952E-1
3.616169839E1,6.454109550E-1,-1.284746170E0,-4.418325424E-1
3.616969381E1,6.694378853E-1,-1.449218750E0,-4.459292889E-1
3.617769055E1,5.395923257E-1,-1.553192616E0,-5.066280365E-1
3.618568559E1,4.064358771E-1,-1.582125187E0,-5.840098858E-1
3.619368140E1,1.396497488E-1,-1.574460506E0,-7.108991146E-1
3.620167621E1,-3.672432899E-2,-1.484549046E0,-8.641433716E-1
3.620970356E1,-1.474513412E-1,-1.412360668E0,-1.014172792E0
3.621769875E1,-2.075210810E-1,-1.328951836E0,-1.108866692E0
3.622569410E1,-3.085299730E-1,-1.186099052E0,-1.204228401E0
3.623368899E1,-3.788570166E-1,-1.024292946E0,-1.329561710E0
3.624168557E1,-4.482257366E-1,-7.882070541E-1,-1.425891519E0
3.624968100E1,-4.809020758E-1,-5.685615540E-1,-1.424576283E0
3.625767642E1,-4.678872824E-1,-2.813100815E-1,-1.441427469E0
3.626570269E1,-4.183048606E-1,-1.536502838E-1,-1.448452830E0
3.627369874E1,-3.693329096E-1,2.509498596E-2,-1.395197630E0
3.628169416E1,-3.628679514E-1,1.833324432E-1,-1.263084650E0
3.628968920E1,-3.503624201E-1,3.110370636E-1,-1.072200775E0
3.629768532E1,-2.563492656E-1,3.842124939E-1,-8.930675983E-1
3.630568044E1,-1.427043080E-1,4.140396118E-1,-7.309229374E-1
3.631370694E1,-9.082037210E-2,5.871992111E-1,-5.973672867E-1
3.632170268E1,-7.617473602E-2,7.816610336E-1,-6.001057625E-1
3.632969841E1,-1.698087454E-1,9.616518021E-1,-6.345872879E-1
3.633769414E1,-3.943641782E-1,1.286008835E0,-6.701393127E-1
3.634569049E1,-5.863950253E-1,1.599633217E0,-5.941021442E-1
3.635368615E1,-8.289156556E-1,1.900190353E0,-4.934318066E-1
3.636168157E1,-9.363203645E-1,2.113105774E0,-3.410153389E-1
3.636970785E1,-9.474340081E-1,2.196963310E0,-2.375059128E-1
3.637770327E1,-9.097775221E-1,2.235077858E0,-3.056108952E-1
3.638569831E1,-8.859276772E-1,2.282351494E0,-4.490811825E-1
3.639369412E1,-9.533450603E-1,2.442113876E0,-6.121242046E-1
3.640168955E1,-1.000613689E0,2.676439285E0,-7.032066584E-1
3.640968467E1,-1.088212252E0,2.911469460E0,-7.814373970E-1
3.641768071E1,-1.187692165E0,3.095060349E0,-8.681792021E-1
3.642570721E1,-1.301284909E0,3.153478622E0,-9.389461279E-1
3.643370318E1,-1.339734793E0,2.969695091E0,-9.682792425E-1
3.644169837E1,-1.108653307E0,2.469744682E0,-8.371534348E-1
3.644969464E1,-8.044606447E-1,1.866298676E0,-5.694441795E-1
3.645769015E1,-4.733914137E-1,1.261915207E0,-2.324192524E-1
3.646568550E1,-2.500438094E-1,7.733364105E-1,6.897950172E-2
3.647368131E1,-1.265968084E-1,3.066606522E-1,4.445850849E-1
3.648170812E1,-2.321944237E-1,-1.439189911E-2,7.296078205E-1
3.648970293E1,-3.458861709E-1,-1.785860062E-1,8.134965897E-1
3.649769889E1,-4.672242999E-1,-3.565454483E-1,8.797588348E-1
3.650569470E1,-4.802778363E-1,-5.291967392E-1,8.659191132E-1
3.651369044E1,-3.834601045E-1,-6.582632065E-1,8.795628548E-1
3.652168548E1,-1.896753311E-1,-8.923597336E-1,8.587825298E-1
3.652968098E1,1.055439115E-1,-1.106625557E0,7.718267441E-1
3.653770748E1,3.272320032E-1,-1.185751915E0,6.251804829E-1
3.654570314E1,4.653803706E-1,-1.272950172E0,3.891272545E-1
3.655369926E1,4.753728211E-1,-1.358083725E0,1.050601006E-1
3.656169461E1,3.305636048E-1,-1.423660278E0,-2.027566433E-1
3.656968972E1,1.290827394E-1,-1.406620026E0,-4.965758324E-1
3.657768523E1,-7.477486134E-2,-1.370894432E0,-8.773772717E-1
3.658568096E1,-1.113632321E-1,-1.387728691E0,-1.055341959E0
3.659370831E1,-1.101834178E-1,-1.435709476E0,-1.123355150E0
3.660170312E1,-1.138090491E-1,-1.445142269E0,-1.019855142E0
3.660969855E1,-8.315318823E-2,-1.483486176E0,-7.794803381E-1
3.661769428E1,-4.353606701E-2,-1.587271214E0,-4.432897568E-1
3.662569040E1,6.909054518E-2,-1.690114975E0,-1.502327919E-1
3.663368452E1,1.753077507E-1,-1.756925583E0,-7.602214813E-3
3.664168210E1,2.041603923E-1,-1.807307243E0,1.492660046E-1
3.664970775E1,2.294273973E-1,-1.877435207E0,2.492914200E-1
3.665770349E1,1.889080405E-1,-1.898280621E0,3.776381016E-1
3.666569860E1,7.836985588E-2,-1.834500790E0,3.113479614E-1
3.667369465E1,-9.115707874E-2,-1.731741428E0,2.277524471E-1
3.668168976E1,-2.566200495E-1,-1.568728447E0,1.415414810E-1
3.668968634E1,-3.263251781E-1,-1.390609741E0,6.764316559E-2
3.669768092E1,-3.731359243E-1,-1.237876892E0,9.664535522E-3
3.670570704E1,-4.416370392E-1,-9.957771301E-1,-4.686403275E-2
3.671370339E1,-4.460461140E-1,-7.454252243E-1,-4.812121391E-2
3.672169882E1,-4.341990948E-1,-5.151195526E-1,-4.592108727E-2
3.672969455E1,-3.650329113E-1,-3.548316956E-1,-1.106653214E-1
3.673769059E1,-1.505810022E-1,-2.331161499E-1,-2.235865593E-1
3.674568548E1,-1.127958298E-3,-1.495180130E-1,-3.682820797E-1
3.675368121E1,7.520878315E-2,-9.419250488E-2,-5.163288116E-1
3.676170795E1,8.342564106E-2,-2.125740051E-2,-6.666693687E-1
3.676970314E1,8.332598209E-2,1.030817032E-1,-6.910942793E-1
3.677769911E1,3.842031956E-2,3.267822266E-1,-5.399270058E-1
3.678569492E1,3.332567215E-2,5.993556976E-1,-3.472766876E-1
3.679368965E1,1.371062994E-1,7.888774872E-1,-1.938717365E-1
3.680168538E1,2.633180618E-1,1.050888062E0,2.578830719E-2
3.680968112E1,3.522159457E-1,1.268010139E0,1.874806881E-1
3.681770770E1,3.758198619E-1,1.449584007E0,1.966798306E-1
3.682570343E1,3.423914313E-1,1.629178047E0,1.567156315E-1
3.683369970E1,2.503885031E-1,1.830697060E0,1.040754318E-1
3.684169482E1,1.383984089E-2,2.097142220E0,3.443837166E-2
3.684969094E1,-1.070263386E-1,2.243825912E0,-3.936886787E-2
3.685768575E1,-1.212798357E-1,2.337388039E0,-6.897950172E-2
3.686568118E1,-7.827281952E-4,2.306120872E0,-1.078021526E-1
3.687370768E1,2.184846401E-1,2.210021019E0,-1.420440674E-1
3.688170364E1,5.300570130E-1,2.092529297E0,-2.037162781E-1
3.688969976E1,6.741907001E-1,2.169609070E0,-3.992612362E-1
3.689769480E1,6.757743955E-1,2.293452263E0,-7.232515812E-1
3.690568969E1,5.164851546E-1,2.491801262E0,-9.910336733E-1
3.691368542E1,3.177584410E-1,2.569127083E0,-1.162391424E0
3.692168208E1,1.196110249E-1,2.494790077E0,-1.320270181E0
3.692970735E1,8.970272541E-2,2.207247734E0,-1.243637443E0
3.693770370E1,1.902151108E-1,1.854425430E0,-9.487433434E-1
3.694569913E1,3.930538893E-1,1.319153786E0,-3.892958164E-1
3.695369425E1,6.988891959E-1,8.515510559E-1,9.992408752E-2
3.696169029E1,9.354603291E-1,3.882112503E-1,7.754530907E-1
3.696968571E1,1.098598361E0,-7.016754150E-2,1.194899082E0
3.697768206E1,1.133907437E0,-3.354253769E-1,1.427016973E0
3.698570733E1,8.409101367E-1,-4.261283875E-1,1.652722836E0
3.699370330E1,4.143019915E-1,-2.908010483E-1,1.695614338E0
3.700169934E1,-7.795953751E-2,-2.200107574E-1,1.553178549E0
3.700969446E1,-4.415092468E-1,-2.455034256E-1,1.269935846E0
3.701769050E1,-5.577365160E-1,-3.163747787E-1,9.797749519E-1
3.702568631E1,-5.355629921E-1,-4.343223572E-1,7.410914898E-1
3.703368143E1,-4.324796200E-1,-5.725049973E-1,5.727107525E-1
3.704170755E1,-1.885612011E-1,-7.519788742E-1,2.661774158E-1
3.704970297E1,7.920825481E-2,-8.737001419E-1,-6.223702431E-2
3.705769901E1,1.961723566E-1,-9.077682495E-1,-3.426058292E-1
3.706569475E1,1.943529844E-1,-9.782724380E-1,-6.330788136E-1
3.707369048E1,1.931034327E-1,-1.003230095E0,-7.700760365E-1
3.708168598E1,5.726885796E-2,-1.056478024E0,-8.459925652E-1
3.708968133E1,2.457153797E-2,-1.090321541E0,-8.897323608E-1
3.709770761E1,4.825329781E-2,-1.186093807E0,-9.344973564E-1
3.710570326E1,1.335482597E-1,-1.190433502E0,-9.301643372E-1
3.711369846E1,1.879128218E-1,-1.203626156E0,-9.177992344E-1
3.712169511E1,2.335945368E-1,-1.189792156E0,-9.808580875E-1
3.712969046E1,2.651132345E-1,-1.218208790E0,-9.659352303E-1
3.713768620E1,2.886587977E-1,-1.248574257E0,-9.410228729E-1
3.714568170E1,2.884147763E-1,-1.266718864E0,-8.718612194E-1
3.715370820E1,2.838436961E-1,-1.285085678E0,-7.644252777E-1
3.716170332E1,1.897230148E-1,-1.306446552E0,-6.111018658E-1
3.716969898E1,-7.057189941E-5,-1.226468563E0,-5.558669567E-1
3.717769471E1,-2.023764849E-1,-1.131833076E0,-5.290634632E-1
3.718569044E1,-3.582227230E-1,-9.294795990E-1,-5.500824451E-1
3.719368618E1,-4.208027124E-1,-6.554031372E-1,-5.144202709E-1
3.720168160E1,-3.858237267E-1,-4.551734924E-1,-4.951136112E-1
3.720970780E1,-2.194130421E-1,-3.095998764E-1,-5.015118122E-1
3.721770415E1,-8.733797073E-2,-2.515754700E-1,-6.126730442E-1
3.722569896E1,1.168691516E-1,-1.631183624E-1,-8.770065308E-1
3.723369446E1,2.024826407E-1,-6.938171387E-2,-1.090731144E0
3.724169081E1,2.352672219E-1,5.191230774E-2,-1.219647646E0
3.724968593E1,2.182224989E-1,2.085857391E-1,-1.219951630E0
3.725771212E1,2.219344378E-1,3.790473938E-1,-1.115995646E0
3.726570816E1,2.409273386E-1,6.039009094E-1,-8.958687782E-1
3.727370321E1,1.817893982E-1,8.207454681E-1,-6.550402641E-1
3.728169925E1,1.786191463E-1,1.009740829E0,-3.964636326E-1
3.728969436E1,1.180189252E-1,1.242341042E0,-2.384526730E-1
3.729769018E1,-4.158419371E-2,1.372674942E0,-1.116232872E-1
3.730568622E1,-3.958699703E-1,1.522224426E0,2.558946609E-3
3.731371203E1,-6.689754725E-1,1.496042252E0,7.774448395E-2
3.732170815E1,-8.192130327E-1,1.413164139E0,5.738782883E-2
3.732970442E1,-8.495733738E-1,1.287771225E0,-1.090700626E-1
3.733769992E1,-8.294482231E-1,1.343157768E0,-3.211402893E-1
3.734569504E1,-7.442839146E-1,1.687959671E0,-6.299791336E-1
3.735369016E1,-7.678930759E-1,2.232789040E0,-9.761228561E-1
3.736168712E1,-8.536543250E-1,2.662686348E0,-1.124685764E0
3.736971262E1,-9.937630296E-1,2.930800438E0,-1.444169998E0
3.737770805E1,-1.156687021E0,2.918607712E0,-1.695395231E0
3.738570348E1,-1.240749359E0,2.653113365E0,-1.810436845E0
3.739369929E1,-1.050344944E0,2.048917770E0,-1.575221658E0
3.740169471E1,-7.696202397E-1,1.354205132E0,-1.132794619E0
3.740969099E1,-5.148823857E-1,6.756029129E-1,-6.658306122E-1
3.741768680E1,-4.291436076E-1,2.297143936E-1,-2.371544838E-1
3.742571299E1,-5.545416474E-1,-1.863670349E-2,3.658740520E-1
3.743370834E1,-8.159863949E-1,1.031246185E-1,7.097797394E-1
3.744170407E1,-9.371032715E-1,3.992757797E-1,8.289053440E-1
3.744969896E1,-8.151179552E-1,9.267053604E-1,8.312585354E-1
3.745769531E1,-2.673755884E-1,1.135539055E0,5.812866688E-1
3.746569097E1,3.281425238E-1,9.547700882E-1,-8.327436447E-2
3.747368639E1,5.801337957E-1,6.436729431E-1,-6.870570183E-1
3.748171289E1,6.270741224E-1,3.773803711E-1,-9.698359966E-1
3.748970871E1,3.940774798E-1,-3.614616394E-2,-7.776076794E-1
3.749770405E1,9.144067764E-2,-4.359025955E-1,-6.347246170E-1
3.750570010E1,-2.340060472E-1,-8.349218369E-1,-3.903601170E-1
3.751369437E1,-7.230765820E-1,-7.551870346E-1,-2.680325508E-2
3.752169064E1,-1.050054908E0,-3.467922211E-1,6.086087227E-2
3.752968699E1,-1.153236628E0,1.356744766E-1,-1.592068672E-1
3.753771295E1,-1.038972020E0,4.576778412E-1,-6.394922733E-1
3.754570746E1,-6.340018511E-1,5.563001633E-1,-1.109477043E0
3.755370342E1,-2.609466314E-1,3.500862122E-1,-1.542232990E0
3.756169915E1,-5.900859833E-2,-1.987457275E-3,-1.657301903E0
3.756969489E1,6.528019905E-3,-5.616378784E-1,-1.644480467E0
3.757768978E1,7.805776596E-2,-1.239955425E0,-1.203017950E0
3.758568574E1,1.797273159E-1,-1.785034180E0,-5.237011909E-1
3.759371293E1,3.291575909E-1,-2.354719639E0,2.332825661E-1
3.760170774E1,4.848183393E-1,-2.648122787E0,6.983025074E-1
3.760970402E1,5.250488520E-1,-2.718113899E0,1.313520432E0
3.761769944E1,5.153590441E-1,-2.634815693E0,1.561025858E0
3.762569494E1,5.673153400E-1,-2.575093746E0,1.539883852E0
3.763369037E1,7.516314983E-1,-2.498583317E0,1.262189627E0
3.764168603E1,7.685114145E-1,-2.383853436E0,8.587162495E-1
3.764971222E1,5.592731237E-1,-2.138030052E0,8.738780022E-2
3.765770796E1,2.653186321E-1,-1.964853287E0,-6.844997406E-1
3.766570408E1,4.337286949E-2,-1.855143070E0,-1.183482170E0
3.767369942E1,-1.471676826E-1,-1.673243523E0,-1.346386194E0
3.768169523E1,-2.958526611E-1,-1.536364555E0,-1.315606117E0
3.768969058E1,-3.078912497E-1,-1.432765484E0,-1.079194069E0
3.769768693E1,-9.309828281E-2,-1.408513069E0,-6.768722534E-1
3.770571290E1,1.904871464E-1,-1.313842297E0,-1.850309372E-1
3.771370855E1,4.916591644E-1,-1.135718346E0,3.656435013E-1
3.772170436E1,6.475172043E-1,-9.899711609E-1,6.661517620E-1
3.772969948E1,8.710067868E-1,-7.693214417E-1,9.259018898E-1
3.773769637E1,1.102396727E0,-5.482082367E-1,8.965740204E-1
3.774569064E1,1.289602876E0,-3.998079300E-1,7.613887787E-1
3.775368607E1,1.480798602E0,-2.514467239E-1,5.338413715E-1
3.776171257E1,1.378770828E0,-5.889415741E-2,3.269195557E-1
3.776970854E1,1.135231018E0,2.717399597E-1,1.348643303E-1
3.777770458E1,8.702530265E-1,4.628124237E-1,1.778154373E-1
3.778569939E1,7.504751086E-1,6.502819061E-1,3.632009029E-1
3.779369543E1,6.779195070E-1,9.413185120E-1,5.847494602E-1
3.780169147E1,5.065858364E-1,1.316347122E0,7.022657394E-1
3.780968574E1,2.735242844E-1,1.822714806E0,8.899724483E-1
3.781771309E1,8.509504795E-2,2.228206635E0,8.038287163E-1
3.782570852E1,-8.992195129E-3,2.447561264E0,6.389486790E-1
3.783370464E1,-1.198036671E-1,2.709192276E0,3.685510159E-1
3.784169914E1,-2.557908297E-1,2.932452202E0,1.242477894E-1
3.784969487E1,-4.591208696E-1,3.175640106E0,-1.099491119E-1
3.785769091E1,-5.360246897E-1,3.319792747E0,-2.711677551E-1
3.786568634E1,-5.104824305E-1,3.300401688E0,-3.584544659E-1
3.787371276E1,-5.385335684E-1,3.148700714E0,-2.775175571E-1
3.788170819E1,-6.441521645E-1,2.962935448E0,5.321311951E-2
3.788970454E1,-7.540565729E-1,2.715446472E0,3.940842152E-1
3.789770035E1,-5.768630505E-1,2.290971756E0,1.037108898E0
3.790569516E1,-2.409665585E-1,1.915247917E0,1.713002920E0
3.791369120E1,1.426846981E-1,1.565200806E0,2.210450172E0
3.792168655E1,4.142115116E-1,1.368728638E0,2.538256168E0
3.792971221E1,6.715618968E-1,1.260895729E0,2.620951176E0
3.793770909E1,8.067433834E-1,1.128151894E0,2.492183685E0
3.794570460E1,7.496709228E-1,1.047048569E0,2.267208099E0
3.795369941E1,5.706182718E-1,9.340143204E-1,1.957464695E0
3.796169537E1,3.244446516E-1,7.935686111E-1,1.680481434E0
3.796969111E1,1.002984047E-1,6.425209045E-1,1.511988163E0
3.797768592E1,-1.814802885E-1,4.085960388E-1,1.341663837E0
3.798571304E1,-3.779065609E-1,2.251300812E-1,1.248962402E0
3.799370884E1,-4.127101898E-1,2.188205719E-2,1.074250221E0
3.800170396E1,-3.573220968E-1,-1.732282639E-1,8.881068230E-1
3.800969993E1,-2.534649372E-1,-2.087478638E-1,7.251863480E-1
3.801769474E1,-1.307853460E-1,-2.350664139E-1,3.979883194E-1
3.802569109E1,-5.509531498E-2,-2.292737961E-1,2.672195435E-2
3.803368690E1,1.810526848E-2,-2.426815033E-1,-4.503834248E-1
3.804171332E1,1.458010674E-1,-2.141084671E-1,-9.154484272E-1
3.804970844E1,2.555096745E-1,-2.757215500E-1,-1.280229807E0
3.805770387E1,3.690457940E-1,-3.597602844E-1,-1.603104591E0
3.806569999E1,4.966362119E-1,-5.395317078E-1,-1.789784431E0
3.807369564E1,6.269028187E-1,-7.518701553E-1,-1.990461826E0
3.808169176E1,7.409090996E-1,-1.010869026E0,-2.150605202E0
3.808968749E1,7.843734026E-1,-1.182036877E0,-2.216462612E0
3.809771338E1,8.078148365E-1,-1.356337070E0,-2.257882595E0
3.810570850E1,7.677063942E-1,-1.452682018E0,-2.181152344E0
3.811370454E1,5.838754177E-1,-1.426473618E0,-2.025265455E0
3.812169989E1,3.209184408E-1,-1.364541054E0,-1.899397492E0
3.812969593E1,1.303893328E-2,-1.200662136E0,-1.754600286E0
3.813769174E1,-3.027366996E-1,-9.857921600E-1,-1.568510771E0
3.814568771E1,-4.691644907E-1,-8.736667633E-1,-1.429224253E0
3.815371298E1,-5.711143613E-1,-7.856349945E-1,-1.300253868E0
3.816170940E1,-5.178614259E-1,-8.252363205E-1,-1.137161493E0
3.816970414E1,-5.118365884E-1,-8.468904495E-1,-1.015202999E0
3.817769987E1,-4.014867544E-1,-8.795337677E-1,-8.953886032E-1
3.818569507E1,-3.345009089E-1,-8.517951965E-1,-7.333173752E-1
3.819369103E1,-2.503162622E-1,-7.300891876E-1,-5.337257385E-1
3.820168623E1,-1.020930409E-1,-5.484647751E-1,-4.122598171E-1
3.820971296E1,1.651084423E-2,-3.784465790E-1,-3.667037487E-1
3.821770869E1,-9.632050991E-3,-1.573963165E-1,-4.908130169E-1
3.822570474E1,-1.474731565E-1,1.703081131E-1,-6.777133942E-1
3.823370024E1,-3.618330359E-1,5.478334427E-1,-8.907213211E-1
3.824169566E1,-6.460297108E-1,1.054884911E0,-1.086154461E0
3.824969132E1,-8.968783021E-1,1.507573128E0,-1.119604349E0
3.825768713E1,-1.203610897E0,1.870003700E0,-1.154106379E0
3.826571271E1,-1.568351030E0,2.229305267E0,-1.113665104E0
3.827370906E1,-1.872899294E0,2.448624611E0,-9.905552864E-1
3.828170472E1,-2.033786774E0,2.517856598E0,-7.817330360E-1
3.828970022E1,-1.899369121E0,2.474617004E0,-6.389842033E-1
3.829769595E1,-1.700670838E0,2.488345146E0,-4.982686043E-1
3.830569138E1,-1.458228588E0,2.649972916E0,-2.950766087E-1
3.831368796E1,-1.108164549E0,2.706035614E0,-2.764379978E-1
3.832171292E1,-7.417337298E-1,2.776764870E0,-3.235368729E-1
3.832970835E1,-6.219767928E-1,2.910774231E0,-4.354572296E-1
3.833770470E1,-7.052322030E-1,3.096779823E0,-6.667795181E-1
3.834570074E1,-8.649235964E-1,3.015033722E0,-9.489445686E-1
3.835369594E1,-8.824187517E-1,2.642108917E0,-9.601678848E-1
3.836169167E1,-8.399611712E-1,2.068764687E0,-6.732032299E-1
3.836971786E1,-6.696943045E-1,1.598237991E0,-3.843481541E-1
3.837771383E1,-5.438901186E-1,1.103084564E0,-1.633942127E-1
3.838570872E1,-5.485575199E-1,6.357259750E-1,7.178544998E-3
3.839370445E1,-5.542022586E-1,3.607721329E-1,1.933276653E-1
3.840170134E1,-6.420714259E-1,2.012271881E-1,3.479022980E-1
3.840969561E1,-7.994563580E-1,3.001699448E-1,5.100731850E-1
3.841769096E1,-9.753171206E-1,4.347257614E-1,8.783547878E-1
3.842571692E1,-9.751771688E-1,3.672657013E-1,1.132736206E0
3.843371296E1,-8.280882239E-1,1.356887817E-1,1.255084038E0
3.844170900E1,-5.964923501E-1,-1.358633041E-1,1.244403124E0
3.844970443E1,-4.025263190E-1,-3.947896957E-1,1.142478228E0
3.845769986E1,-2.565943003E-1,-6.168909073E-1,8.726661205E-1
3.846569590E1,-1.357702613E-1,-8.328256607E-1,5.061299801E-1
3.847369125E1,-3.314751387E-2,-8.454818726E-1,2.062621117E-1
3.848171806E1,4.836404324E-2,-8.458938599E-1,-1.141765118E-1
3.848971348E1,-1.776504517E-2,-8.338365555E-1,-2.808487415E-1
3.849770983E1,-1.354913116E-1,-8.238515854E-1,-2.432253361E-1
3.850570433E1,-1.832522750E-1,-8.353471756E-1,-6.082987785E-2
3.851370007E1,-1.451597214E-1,-9.119472504E-1,3.884792328E-3
3.852169642E1,-2.265129089E-1,-9.700222015E-1,7.554936409E-2
3.852969154E1,-3.233439326E-1,-1.122556686E0,1.866960526E-2
3.853771719E1,-3.685936928E-1,-1.281083107E0,5.143690109E-2
3.854571323E1,-4.482295513E-1,-1.491767883E0,1.159546375E-1
3.855370897E1,-4.167540669E-1,-1.666259289E0,2.607560158E-2
3.856170493E1,-4.347710609E-1,-1.821224213E0,-1.106586456E-1
3.856970043E1,-3.824142814E-1,-1.980523109E0,-3.158295155E-1
3.857769617E1,-2.969436646E-1,-2.104910374E0,-5.341968536E-1
3.858569190E1,-2.469400167E-1,-2.179941177E0,-8.062837124E-1
3.859371802E1,-2.612062693E-1,-2.166699886E0,-9.613671303E-1
3.860171352E1,-2.474714518E-1,-2.136777878E0,-9.884641171E-1
3.860970856E1,-2.819733620E-1,-2.018469334E0,-9.094314575E-1
3.861770553E1,-2.461506128E-1,-1.929416656E0,-9.320056438E-1
3.862570011E1,-2.597618103E-1,-1.846108913E0,-8.656523228E-1
3.863369615E1,8.385026455E-2,-2.175158501E0,-9.296265841E-1
3.864169188E1,4.883432388E-2,-2.022286415E0,-1.017331839E0
3.864971738E1,-7.696390152E-3,-1.779900074E0,-1.261294127E0
3.865771343E1,3.568184376E-2,-1.608224392E0,-1.465306282E0
3.866570947E1,8.778476715E-2,-1.379317760E0,-1.389220238E0
3.867370489E1,1.442424059E-1,-1.140969276E0,-1.163890123E0
3.868170094E1,3.105194569E-1,-8.743314743E-1,-7.358428240E-1
3.868969613E1,6.378186345E-1,-8.934135437E-1,-4.099905491E-1
3.869769125E1,8.146797419E-1,-9.353876114E-1,-1.308269501E-1
3.870571768E1,8.971861601E-1,-8.353891373E-1,1.176724434E-1
3.871371341E1,9.077763557E-1,-7.444477081E-1,2.384579182E-1
3.872170922E1,8.729037642E-1,-5.669374466E-1,2.105669975E-1
3.872970549E1,7.498911023E-1,-2.235078812E-1,5.926227570E-2
3.873770030E1,5.493839979E-1,1.904287338E-1,3.157806396E-2
3.874569673E1,2.730715871E-1,7.370891571E-1,1.356945038E-1
3.875369146E1,1.734753847E-1,1.059044838E0,2.576227188E-1
3.876171835E1,1.624308825E-1,1.481845856E0,4.276952744E-1
3.876971347E1,-5.889058113E-3,1.884204865E0,5.771522522E-1
3.877770882E1,6.698369980E-4,2.164295197E0,6.711339951E-1
3.878570463E1,6.045055389E-2,2.427349091E0,7.605705261E-1
3.879370036E1,2.603673339E-1,2.546410561E0,6.856114864E-1
3.880169609E1,4.626175761E-1,2.622467041E0,4.451642036E-1
3.880969114E1,4.663758874E-1,2.742514610E0,4.360008240E-2
3.881771802E1,3.735179901E-1,2.873828888E0,-3.092939854E-1
3.882571368E1,2.568616867E-1,3.067629814E0,-5.790421963E-1
3.883370911E1,2.380857468E-1,3.198266983E0,-6.309130192E-1
3.884170492E1,3.763897419E-1,3.167483330E0,-5.804102421E-1
3.884969996E1,6.861523390E-1,2.813421249E0,-4.121575356E-1
3.885769607E1,1.004455447E0,2.408479691E0,-1.823112965E-1
3.886569212E1,1.123380303E0,1.962340355E0,3.022544384E-1
3.887371739E1,1.060788512E0,1.574736595E0,7.364237309E-1
3.888171374E1,7.958030105E-1,1.282620430E0,1.028356075E0
3.888970939E1,3.860586882E-1,1.118203163E0,1.482882500E0
3.889770490E1,4.858815670E-2,9.938211441E-1,1.855425358E0
3.890570094E1,-1.652218103E-1,6.899166107E-1,2.172852993E0
3.891369598E1,-1.956964731E-1,3.693428040E-1,2.435052633E0
3.892169202E1,-1.478346586E-1,6.298160553E-2,2.522239923E0
3.892971798E1,-3.934586048E-2,-3.437557220E-1,2.548860550E0
3.893771341E1,6.819248199E-2,-6.809911728E-1,2.343180418E0
3.894570907E1,1.513838768E-1,-9.390144348E-1,1.936541319E0
3.895370511E1,4.706907272E-2,-1.019380569E0,1.388592958E0
3.896170084E1,-7.012659311E-2,-1.070510864E0,8.370289803E-1
3.896969627E1,-1.744648814E-1,-1.048538208E0,2.488286495E-1
3.897769208E1,-2.683857679E-1,-9.092245102E-1,-2.015020847E-1
3.898571820E1,-2.559782267E-1,-8.291578293E-1,-7.450380325E-1
3.899371432E1,-1.464321613E-1,-8.556652069E-1,-1.325448990E0
3.900170974E1,-5.237102509E-2,-6.646566391E-1,-1.680977345E0
3.900970424E1,3.040154576E-1,-8.712844849E-1,-1.923375130E0
3.901770144E1,7.006705999E-1,-1.357516766E0,-2.188005924E0
3.902569571E1,4.593772292E-1,-1.115076065E0,-2.339088917E0
3.903369168E1,6.229538918E-1,-1.453021526E0,-2.378853798E0
3.904171795E1,7.020304799E-1,-1.725571632E0,-2.429898024E0
3.904971422E1,5.543168783E-1,-1.729056835E0,-2.497293234E0
3.905770934E1,3.889833689E-1,-1.657234192E0,-2.545988083E0
3.906570453E1,1.451909542E-1,-1.538841248E0,-2.463595629E0
3.907370080E1,-1.002929807E-1,-1.347704887E0,-2.293158531E0
3.908169631E1,-2.921938896E-1,-1.113378525E0,-2.109321594E0
3.908969196E1,-4.488630295E-1,-9.873085022E-1,-1.738233089E0
3.909771793E1,-4.929554462E-1,-9.368734360E-1,-1.431500554E0
3.910571359E1,-4.135779142E-1,-9.245567322E-1,-1.139309168E0
3.911370940E1,-3.766657114E-1,-8.530521393E-1,-9.217619896E-1
3.912170575E1,-4.800878763E-1,-7.589244843E-1,-6.988604069E-1
3.912970025E1,-6.341248751E-1,-4.799308777E-1,-5.183844566E-1
3.913769652E1,-8.528598547E-1,-1.716289520E-1,-3.815283775E-1
3.914569172E1,-1.156238317E0,2.277326584E-1,-2.227444649E-1
3.915371876E1,-1.256282568E0,5.660076141E-1,-1.315741539E-1
3.916171426E1,-1.155550957E0,6.397762299E-1,-1.481089592E-1
3.916970899E1,-9.363607168E-1,8.162174225E-1,-2.477877140E-1
3.917770504E1,-7.243582010E-1,1.079537392E0,-3.345749378E-1
3.918570077E1,-5.281888247E-1,1.272706985E0,-2.735066414E-1
3.919369650E1,-5.108044147E-1,1.475236893E0,-1.450288296E-1
3.920169285E1,-5.159178972E-1,1.636983871E0,2.200722694E-2
3.920971820E1,-5.125286579E-1,1.855669022E0,1.427004337E-1
3.921771455E1,-4.137054682E-1,1.958286285E0,1.785433292E-1
3.922570990E1,-3.169316053E-1,1.971137047E0,-4.924967289E-1
3.923370563E1,-5.222775936E-1,2.253834724E0,-3.891980648E-1
3.924170167E1,-7.042548060E-1,2.728621483E0,-4.467828274E-1
3.924969687E1,-4.062064886E-1,2.982233047E0,-7.122178078E-1
3.925769322E1,1.826536655E-2,3.008145332E0,-6.621925831E-1
3.926571818E1,1.329586506E-1,3.180083275E0,-3.767893314E-1
3.927371422E1,-4.278600216E-2,3.079573631E0,-5.722305775E-1
3.928170965E1,-3.093057871E-1,2.823945999E0,-7.738320827E-1
3.928970538E1,-8.318527937E-1,2.559908867E0,-8.331217766E-1
3.929770135E1,-1.390350819E0,2.503553391E0,-6.881361008E-1
3.930569677E1,-1.438587189E0,2.251577377E0,-5.328185558E-1
3.931372274E1,-1.333626032E0,1.588189125E0,-2.223675251E-1
3.932171786E1,-1.104769588E0,9.504575729E-1,2.418382168E-1
3.932971451E1,-9.371801019E-1,4.449167252E-1,6.718611717E-1
3.933770994E1,-8.968027234E-1,3.263759613E-1,1.004393816E0
3.934570506E1,-8.848763704E-1,3.307628632E-1,1.205035686E0
3.935370017E1,-8.646140099E-1,3.235788345E-1,1.214594364E0
3.936169675E1,-7.747400999E-1,2.282810211E-1,1.030083895E0
3.936972303E1,-7.218834758E-1,1.028060913E-1,7.125976086E-1
3.937771899E1,-5.792870522E-1,-8.828926086E-2,2.900192738E-1
3.938571419E1,-4.243856072E-1,-3.319606781E-1,-9.133386612E-2
3.939370953E1,-2.663795948E-1,-6.514711380E-1,-4.231891632E-1
3.940170558E1,-1.560618281E-1,-9.528245926E-1,-5.464344025E-1
3.940970016E1,-2.161145210E-2,-1.322542191E0,-6.085398197E-1
3.941769674E1,5.165904760E-2,-1.621816635E0,-5.970780849E-1
3.942572293E1,7.316905260E-2,-1.822183609E0,-4.854507446E-1
3.943371905E1,6.761664152E-2,-1.974692345E0,-3.508582115E-1
3.944171409E1,6.152790785E-2,-1.960251808E0,-2.304384708E-1
3.944970990E1,8.764106035E-2,-1.961196899E0,-3.720760345E-2
3.945770563E1,6.188595295E-2,-2.100439072E0,7.046175003E-2
3.946569983E1,2.702486515E-2,-2.174905300E0,3.853464127E-2
3.947369649E1,-4.108011723E-2,-2.119880199E0,-7.578969002E-2
3.948172330E1,-1.046311855E-1,-2.078742027E0,-3.332300186E-1
3.948971865E1,-1.838791370E-1,-2.033957958E0,-5.869739056E-1
3.949771446E1,-2.438172102E-1,-1.963486671E0,-8.433530331E-1
3.950570896E1,-3.834381104E-1,-1.869237900E0,-9.530735016E-1
3.951370554E1,-5.732898712E-1,-1.636269569E0,-9.574859142E-1
3.952170096E1,-5.968723297E-1,-1.422907352E0,-9.026322365E-1
3.952969739E1,-5.182714462E-1,-1.358498096E0,-7.475776672E-1
3.953769212E1,-2.730700970E-1,-1.290388584E0,-5.340268612E-1
3.954571932E1,-7.809197903E-2,-1.206911087E0,-3.829069138E-1
3.955371436E1,1.041792631E-1,-1.105631828E0,-4.876689911E-1
3.956171009E1,2.662003040E-1,-1.045918465E0,-7.004225254E-1
3.956970521E1,4.658156037E-1,-1.069740295E0,-8.397920132E-1
3.957770095E1,5.387839675E-1,-9.821748734E-1,-9.202182293E-1
3.958569606E1,4.130110741E-1,-7.829523087E-1,-8.746609688E-1
3.959372234E1,2.689528465E-1,-5.825109482E-1,-9.533476830E-1
3.960171899E1,1.098840237E-1,-3.876924515E-1,-9.390268326E-1
3.960971473E1,-6.113529205E-2,-1.580677032E-1,-7.789080143E-1
3.961770946E1,-1.648008823E-1,1.179599762E-1,-4.559967518E-1
3.962570619E1,-1.378004551E-1,3.151559830E-1,-2.272977829E-1
3.963370100E1,-1.010650396E-1,5.818099976E-1,5.553126335E-2
3.964169704E1,-6.388926506E-2,8.889484406E-1,3.180675507E-1
3.964972347E1,3.612279892E-2,1.073687553E0,3.522515297E-1
3.965771805E1,5.178189278E-2,1.277493477E0,2.370138168E-1
3.966571432E1,-7.330608368E-2,1.476796150E0,1.081919670E-1
3.967371006E1,-2.817094326E-1,1.669421196E0,9.443163872E-2
3.968170579E1,-4.130376577E-1,1.804829597E0,1.318402290E-1
3.968970122E1,-5.051783323E-1,1.834772110E0,1.522307396E-1
3.969769672E1,-5.811051130E-1,1.790397644E0,1.645288467E-1
3.970572291E1,-5.342956781E-1,1.743771553E0,1.029467583E-1
3.971371857E1,-3.575251102E-1,1.827060699E0,-5.085945129E-3
3.972171561E1,-1.480182409E-1,2.177853584E0,7.237672806E-2
3.972970950E1,-2.809119225E-2,2.461360931E0,2.050256729E-1
3.973770554E1,1.271601915E-1,2.606025696E0,3.613741398E-1
3.974570151E1,2.754809260E-1,2.489725113E0,4.391424656E-1
3.975369693E1,4.050396681E-1,2.160678864E0,6.173357964E-1
3.976172320E1,4.915113449E-1,1.664198875E0,7.506532669E-1
3.976971894E1,5.334104896E-1,1.229522705E0,8.341636658E-1
3.977771436E1,5.533607006E-1,7.361249924E-1,1.011794329E0
3.978570971E1,6.460105181E-1,3.793067932E-1,1.214756489E0
3.979370483E1,7.842488289E-1,2.374649048E-4,1.371167898E0
3.980170126E1,9.128767252E-1,-3.016128540E-1,1.416969776E0
3.980969691E1,9.887822270E-1,-3.442077637E-1,1.353989840E0
3.981772372E1,1.053498983E0,-1.656036377E-1,1.259956121E0
3.982571823E1,1.154591560E0,1.178359985E-2,1.210069418E0
3.983369409E1,1.274531484E0,-3.439712524E-2,1.059680223E0
3.984169035E1,1.295174599E0,-8.889675140E-2,8.359417915E-1
3.984968492E1,1.061111927E0,-1.561250687E-1,7.174916267E-1
3.985768158E1,7.795682549E-1,-3.271694183E-1,5.678207874E-1
3.986567661E1,6.249104738E-1,-5.209636688E-1,3.684060574E-1
3.987370311E1,5.355019569E-1,-6.320123672E-1,1.548781395E-1
3.988169822E1,4.574876130E-1,-7.706336975E-1,-5.059099197E-2
3.988969302E1,4.131698608E-1,-9.752216339E-1,-2.836434841E-1
3.989768998E1,3.540281057E-1,-1.123908520E0,-5.985288620E-1
3.990568486E1,2.676466107E-1,-1.051195621E0,-8.140795231E-1
3.991368113E1,1.637210846E-1,-9.243440628E-1,-8.836066723E-1
3.992167663E1,1.001462936E-1,-7.486467361E-1,-8.183343410E-1
3.992970274E1,1.227611899E-1,-6.801309586E-1,-7.063219547E-1
3.993769824E1,1.858680248E-1,-8.221721649E-1,-6.112847328E-1
3.994569366E1,2.241173387E-1,-9.528255463E-1,-6.413524151E-1
3.995368992E1,1.759548187E-1,-1.031164169E0,-7.273755074E-1
3.996168503E1,2.024948597E-1,-1.097598076E0,-8.769156933E-1
3.996968084E1,2.527449131E-1,-1.125192165E0,-1.057374954E0
3.997767687E1,2.494258881E-1,-1.060805798E0,-1.259783745E0
3.998570245E1,1.468736529E-1,-9.756650925E-1,-1.480664730E0
3.999369818E1,9.952783585E-4,-8.021049500E-1,-1.537355185E0
4.000169421E1,-2.934563756E-1,-5.592517853E-1,-1.494953394E0
4.000968986E1,-4.509457946E-1,-4.700717926E-1,-1.365007162E0
4.001768590E1,-5.122889876E-1,-4.151391983E-1,-1.309575796E0
4.002568078E1,-6.015158296E-1,-2.364063263E-1,-1.238064051E0
4.003367643E1,-4.680094719E-1,-1.785068512E-1,-1.065631390E0
4.004170292E1,-1.227607131E-1,-1.889438629E-1,-9.087533951E-1
4.004969750E1,-4.891246557E-2,-1.312637329E-1,-8.575265408E-1
4.005769384E1,-4.549920559E-2,1.298809052E-2,-9.618594646E-1
4.006568957E1,1.038695574E-1,-4.634094238E-2,-1.078510046E0
4.007368499E1,2.101090252E-1,-2.105522156E-2,-1.230987310E0
4.008168041E1,1.529961228E-1,2.717533112E-1,-1.273266435E0
4.008967675E1,1.679066420E-1,3.941526413E-1,-1.459235549E0
4.009770286E1,-3.824433088E-1,7.462596893E-1,-1.710373044E0
4.010569798E1,-1.221806526E0,1.398304939E0,-1.349534154E0
4.011369347E1,-1.669138789E0,1.904929161E0,-7.062053680E-1
4.012168982E1,-1.535777450E0,2.134302139E0,-2.652220726E-1
4.012968616E1,-8.751945496E-1,1.994772911E0,-4.480834007E-1
4.013768250E1,-4.355419278E-1,1.823580742E0,-5.559804440E-1
4.014567631E1,-8.774548769E-2,1.825620651E0,-6.470816135E-1
4.015370257E1,-2.045828700E-1,1.929199219E0,-7.475960255E-1
4.016169799E1,-9.532220364E-1,2.089740753E0,-6.933269501E-1
4.016969426E1,-2.224878311E0,2.176815987E0,-4.907014370E-1
4.017768914E1,-5.513684750E0,3.597800255E0,-9.210492373E-1
4.018568510E1,-5.697238922E0,3.812914848E0,5.870294571E-2
4.019368090E1,-4.530821323E0,3.091849327E0,7.430262566E-1
4.020167632E1,-3.454924107E0,2.880992889E0,6.371293068E-1
4.020970367E1,-2.203338146E0,2.141486168E0,2.324182987E-1
4.021769824E1,-1.170613885E0,1.517866135E0,3.931775093E-1
4.022569397E1,-4.648394585E-1,4.763240814E-1,2.332897186E-1
4.023368908E1,-2.808696032E-1,-2.045364380E-1,1.712450981E-1
4.024168534E1,-5.261130929E-1,-6.137866974E-1,3.300662041E-1
4.024968054E1,-9.304327369E-1,-3.484630585E-1,8.692359924E-1
4.025767618E1,-1.017696381E0,-2.780532837E-2,1.286320448E0
4.026570299E1,-9.627967477E-1,-3.952026367E-2,1.560537338E0
4.027369849E1,-7.850193381E-1,-2.044372559E-1,1.595261574E0
4.028169352E1,-4.017625451E-1,-2.373743057E-1,1.622164726E0
4.028968956E1,-2.973598242E-2,-3.630304337E-1,1.137808800E0
4.029768505E1,1.322394013E-1,-5.006380081E-1,4.497230053E-1
4.030568040E1,3.679073155E-1,-4.908056259E-1,-4.036593437E-2
4.031367589E1,6.778341532E-1,-5.381679535E-1,-1.282470226E-1
4.032170239E1,4.661833048E-1,-3.856945038E-1,-3.316693306E-1
4.032969843E1,3.918823600E-1,-3.899545670E-1,-4.911925793E-1
4.033769385E1,3.724427819E-1,-5.344429016E-1,-5.184457302E-1
4.034568896E1,2.788221836E-2,-8.749532700E-1,-7.731733322E-1
4.035368492E1,-1.977405548E-1,-1.076317787E0,-8.894448280E-1
4.036168064E1,-7.945084572E-2,-1.220069885E0,-1.008143544E0
4.036970630E1,-6.666290760E-2,-1.416609764E0,-1.746814251E-1
4.037770225E1,-3.077069521E-1,-1.478068352E0,-3.322732449E-1
4.038569798E1,-4.983794689E-2,-1.670525551E0,-2.823421955E-1
4.039369463E1,2.195990086E-1,-1.905708313E0,-2.171609402E-1
4.040168974E1,2.148373127E-1,-1.963397980E0,-1.404027939E-1
4.040968401E1,9.421547651E-1,-1.862497807E0,3.734874725E-2
4.041768128E1,4.827718735E-1,-1.792136669E0,6.376838684E-2
4.042570685E1,3.919466138E-1,-1.766283035E0,-7.079110146E-1
4.043370227E1,5.429347157E-1,-1.702220440E0,-1.072079897E0
4.044169830E1,5.705045462E-1,-1.587049961E0,-1.601656675E0
4.044969403E1,7.342692614E-1,-1.402858734E0,-1.769652843E0
4.045768968E1,9.410942793E-1,-1.281496048E0,-1.968401551E0
4.046568487E1,1.019524097E0,-1.095525742E0,-2.054309845E0
4.047368083E1,9.938130379E-1,-9.454851151E-1,-2.044728994E0
4.048170671E1,7.716071606E-1,-7.791004181E-1,-2.068356991E0
4.048970221E1,4.395837188E-1,-6.751461029E-1,-1.785578847E0
4.049769878E1,2.606495619E-1,-6.177263260E-1,-1.594127893E0
4.050569366E1,1.275615692E-1,-5.402326584E-1,-1.465559483E0
4.051368939E1,9.417974949E-2,-3.952045441E-1,-9.629506469E-1
4.052168504E1,-2.432644367E-2,-2.381219864E-1,-4.795937538E-1
4.052968085E1,7.896780968E-3,-6.971836090E-2,-2.758183479E-1
4.053770673E1,1.133443117E-1,3.547763824E-2,-2.292581797E-1
4.054570184E1,1.972846389E-1,3.313741684E-1,-3.038783073E-1
4.055369810E1,1.712374091E-1,6.771917343E-1,-4.948405027E-1
4.056169476E1,2.627182007E-2,1.013515472E0,-5.383288860E-1
4.056968933E1,8.548617363E-3,1.256679535E0,-6.292810440E-1
4.057768536E1,-8.964991570E-2,1.555485725E0,-6.688480377E-1
4.058568140E1,-2.806010246E-1,1.907793999E0,-6.108528376E-1
4.059370659E1,-4.163987041E-1,2.153139114E0,-5.008592606E-1
4.060170262E1,-3.316562176E-1,2.236136436E0,-3.201555014E-1
4.060969835E1,-3.474140167E-1,2.493988037E0,-1.096819639E-1
4.061769354E1,-3.029005527E-1,2.540820122E0,-7.029521465E-2
4.062568888E1,-1.718831658E-1,2.664076805E0,-2.317750454E-2
4.063368500E1,-1.454877853E-2,2.880960464E0,1.708030701E-2
4.064168072E1,5.138564110E-2,3.069689751E0,1.658809185E-1
4.064970591E1,3.968700767E-1,3.129709244E0,4.041868448E-1
4.065770264E1,7.390390635E-1,2.986974716E0,5.788742304E-1
4.066569860E1,9.489711523E-1,2.797163010E0,7.172271013E-1
4.067369371E1,1.105810523E0,2.390194893E0,8.637520075E-1
4.068169044E1,1.265247822E0,2.043635368E0,8.900709152E-1
4.068968555E1,1.430444360E0,1.585081100E0,9.327672720E-1
4.069768089E1,1.417207837E0,1.244457245E0,9.385873079E-1
4.070570716E1,1.315337062E0,9.018802643E-1,1.037189603E0
4.071370258E1,1.221187830E0,6.933631897E-1,1.206474185E0
4.072169769E1,1.064125061E0,5.826845169E-1,1.234548211E0
4.072969342E1,8.693385124E-1,4.116716385E-1,1.284647703E0
4.073768884E1,7.812908292E-1,3.455810547E-1,1.262575626E0
4.074568510E1,7.780472040E-1,1.018896103E-1,1.151471853E0
4.075368060E1,8.443877697E-1,-1.446542740E-1,9.663052559E-1
4.076170702E1,8.400261998E-1,-3.484411240E-1,6.851408482E-1
4.076970275E1,7.441725135E-1,-6.163663864E-1,3.927555084E-1
4.077769817E1,6.994801164E-1,-8.359537125E-1,1.332187653E-2
4.078569428E1,6.734454632E-1,-1.130539894E0,-4.475778341E-1
4.079368901E1,5.170496702E-1,-1.326565742E0,-8.264076710E-1
4.080168543E1,3.849425912E-1,-1.428825378E0,-1.012683034E0
4.080968077E1,2.711879015E-1,-1.480378151E0,-1.011643767E0
4.081770612E1,-8.131805062E-2,-1.270868301E0,-7.481143475E-1
4.082570338E1,5.166583657E-1,-1.665060043E0,-3.252372742E-1
4.083369849E1,3.878815770E-1,-1.423040390E0,-3.015273809E-1
4.084169384E1,3.129661679E-1,-1.347190857E0,-3.879834414E-1
4.084968903E1,2.638885379E-1,-1.451860428E0,-6.371634007E-1
4.085768445E1,1.377159953E-1,-1.511626244E0,-8.258576393E-1
4.086568079E1,8.331719041E-2,-1.691400528E0,-1.041632652E0
4.087370721E1,-6.815087795E-2,-1.837682724E0,-1.314366460E0
4.088170201E1,-3.572657704E-2,-1.918991566E0,-1.447059989E0
4.088969774E1,-2.438142896E-2,-1.906273365E0,-1.510747194E0
4.089769324E1,3.261515498E-2,-1.852045059E0,-1.321995616E0
4.090568896E1,2.109539658E-1,-1.826234341E0,-1.010077238E0
4.091368531E1,1.826268584E-1,-1.755275249E0,-6.049783230E-1
4.092168065E1,5.200141668E-2,-1.694851398E0,-4.363403320E-1
4.092970692E1,-2.283963859E-1,-1.607140541E0,-3.677630424E-1
4.093770257E1,-4.285667539E-1,-1.353571892E0,-4.673446417E-1
4.094569837E1,-4.728764594E-1,-1.163687706E0,-6.239742041E-1
4.095369372E1,-4.278261960E-1,-9.055557251E-1,-9.270856380E-1
4.096169006E1,-3.861351609E-1,-6.022434235E-1,-1.179486275E0
4.096968494E1,-4.085278213E-1,-2.386608124E-1,-1.444924116E0
4.097768090E1,-4.829256833E-1,5.641555786E-2,-1.614185929E0
4.098570686E1,-5.180864334E-1,2.711753845E-1,-1.547354460E0
4.099370251E1,-4.953619838E-1,4.867715836E-1,-1.406127691E0
4.100169924E1,-4.362770319E-1,6.693553925E-1,-1.140696764E0
4.100969396E1,-3.252712190E-1,9.262619019E-1,-6.768722534E-1
4.101768946E1,-1.318599582E-1,1.194873810E0,-2.899578810E-1
4.102568549E1,9.981748462E-2,1.477344513E0,-4.242515564E-2
4.103368053E1,3.904469013E-1,1.792967796E0,2.942419052E-2
4.104170649E1,5.634430051E-1,2.055630684E0,-9.559500217E-2
4.104970337E1,7.077437639E-1,2.423687935E0,-4.120072722E-1
4.105769764E1,5.537056327E-1,2.634148598E0,-9.408137798E-1
4.106569398E1,2.303866744E-1,2.749568939E0,-1.535824299E0
4.107368963E1,-5.502508283E-1,2.985927582E0,-2.094185352E0
4.108168566E1,-1.170991659E0,3.125673294E0,-2.429112911E0
4.108968078E1,-1.815549374E0,3.427456856E0,-2.270547867E0
4.109770704E1,-2.127275467E0,3.723567009E0,-1.833051920E0
4.110570216E1,-2.092252016E0,3.788528442E0,-1.268961906E0
4.111369842E1,-1.895987272E0,3.634051323E0,-6.853939295E-1
4.112169415E1,-1.654044151E0,3.243083000E0,-1.361865997E-1
4.112968964E1,-1.269511104E0,2.720522881E0,4.645330906E-1
4.113768530E1,-9.679834843E-1,2.145013809E0,9.241285324E-1
4.114568072E1,-8.304535151E-1,1.683769226E0,1.153016210E0
4.115370783E1,-9.566345811E-1,1.252673149E0,1.158347130E0
4.116170302E1,-1.147110462E0,9.639978409E-1,9.578917027E-1
4.116969813E1,-1.383686304E0,7.918052673E-1,4.858504534E-1
4.117769416E1,-1.627472639E0,6.262969971E-1,6.459379196E-2
4.118568989E1,-1.659412622E0,4.894123077E-1,-1.369512081E-1
4.119368439E1,-1.592586637E0,3.500909805E-1,-8.112633228E-2
4.120168127E1,-1.404853463E0,1.843204498E-1,4.614388943E-2
4.120970715E1,-1.117985010E0,-1.275157928E-2,-5.308163166E-2
4.121770257E1,-1.005267143E0,-2.457923889E-1,-9.648346901E-2
4.122569768E1,-9.332947135E-1,-3.924589157E-1,-1.427788734E-1
4.123369410E1,-6.080337763E-1,-7.039499283E-1,-2.240070105E-1
4.124169014E1,-4.575979114E-1,-1.017240524E0,-3.026502132E-1
4.124968548E1,-4.271522462E-1,-1.267647743E0,-2.329981327E-1
4.125768159E1,-4.256855249E-1,-1.567497253E0,-1.001858711E-1
4.126570648E1,-4.292902946E-1,-1.859628201E0,9.424948692E-2
4.127370259E1,-4.269714952E-1,-2.149132729E0,4.576928616E-1
4.128169924E1,-4.267525673E-1,-2.431778431E0,8.096798658E-1
4.128969397E1,-4.056241512E-1,-2.643459797E0,9.239058495E-1
4.129769062E1,-4.687865376E-1,-2.849062443E0,9.769154787E-1
4.130568450E1,-3.435564041E-1,-2.967208862E0,9.137818813E-1
4.131368084E1,-2.370516658E-1,-3.201232910E0,4.897592068E-1
4.132170772E1,-4.063877463E-1,-3.292261600E0,8.909404278E-2
4.132970284E1,-5.279628038E-1,-3.345328331E0,-2.336889505E-1
4.133769756E1,-6.853079796E-1,-3.298057079E0,-4.230302572E-1
4.134569398E1,-5.412800908E-1,-3.258218288E0,-5.123714209E-1
4.135369002E1,-6.865279675E-1,-3.125116348E0,-7.226947546E-1
4.136168482E1,-7.043171525E-1,-2.937215328E0,-8.456394672E-1
4.136968116E1,-6.542981267E-1,-2.778179646E0,-1.061865211E0
4.137770674E1,-6.654947996E-1,-2.626371384E0,-1.326620460E0
4.138570247E1,-7.382395864E-1,-2.496045589E0,-1.385128736E0
4.139369850E1,-8.946024776E-1,-2.291369438E0,-1.384695530E0
4.140169415E1,-9.376339912E-1,-2.084247112E0,-1.287647367E0
4.140969019E1,-8.074576259E-1,-1.903399467E0,-1.072591305E0
4.141768476E1,-5.264747143E-1,-1.636296272E0,-6.952759027E-1
4.142571241E1,-6.666296721E-2,-1.309263229E0,-2.071253657E-1
4.143370760E1,5.024747252E-1,-9.846324921E-1,2.345222235E-2
4.144170271E1,8.476239443E-1,-7.102203369E-1,-1.188081503E-1
4.144969844E1,8.334425688E-1,-3.397293091E-1,-2.748392820E-1
4.145769386E1,8.731560707E-1,5.994987488E-2,-4.547761679E-1
4.146568897E1,8.548054099E-1,4.532070160E-1,-6.602280140E-1
4.147368493E1,8.640739322E-1,8.400602341E-1,-7.511737347E-1
4.148171081E1,8.630620837E-1,1.266120911E0,-8.706050515E-1
4.148970746E1,9.208301306E-1,1.520670891E0,-9.154396653E-1
4.149770288E1,9.189269543E-1,1.917398453E0,-9.617939591E-1
4.150569861E1,8.181748390E-1,2.274658203E0,-8.682646155E-1
4.151369380E1,5.794416070E-1,2.642745018E0,-5.957458615E-1
4.152168953E1,1.659321785E-1,3.043134689E0,-3.002554178E-1
4.152968579E1,-2.341848612E-1,3.310109138E0,-1.155623198E-1
4.153768067E1,-6.319434643E-1,3.706594467E0,1.335421801E-1
4.154570656E1,-8.298576474E-1,4.050307274E0,1.918821335E-1
4.155370282E1,-8.408325911E-1,4.267004967E0,2.336655855E-1
4.156169793E1,-5.848973393E-1,4.409338951E0,3.300403357E-1
4.156969374E1,-2.226688266E-1,4.455986977E0,5.114227533E-1
4.157768939E1,2.605070770E-1,4.414194107E0,5.536866188E-1
4.158568550E1,7.461699843E-1,4.248270035E0,5.980004072E-1
4.159371131E1,1.066797256E0,4.128420830E0,7.945845127E-1
4.160170711E1,1.344026089E0,3.908671379E0,1.122153401E0
4.160970245E1,1.587929249E0,3.612653732E0,1.444094658E0
4.161769826E1,1.597827911E0,3.364457130E0,1.999996543E0
4.162569368E1,1.490241528E0,3.093924522E0,2.235913277E0
4.163369025E1,1.297779322E0,2.790910721E0,2.245347977E0
4.164168544E1,1.081062913E0,2.440888405E0,2.023458242E0
4.164971217E1,8.066887259E-1,2.206735611E0,1.841576576E0
4.165770666E1,6.042547822E-1,1.820323944E0,1.595698595E0
4.166570339E1,3.574378490E-1,1.370234489E0,1.335502148E0
4.167369750E1,3.092660606E-1,9.668140411E-1,1.025786281E0
4.168169423E1,4.382236302E-1,4.833555222E-1,5.768752098E-1
4.168968958E1,6.604139209E-1,7.112503052E-2,1.092313528E-1
4.169768507E1,7.843982577E-1,-3.435783386E-1,-4.583406448E-1
4.170571126E1,8.469675779E-1,-8.032703400E-1,-7.244540453E-1
4.171370730E1,8.633631468E-1,-1.219157219E0,-7.715560794E-1
4.172170179E1,9.040575027E-1,-1.770945549E0,-5.825970173E-1
4.172969806E1,8.968552947E-1,-2.183734417E0,-3.298158646E-1
4.173769448E1,9.286416769E-1,-2.608817577E0,-1.008188725E-2
4.174568959E1,9.453811646E-1,-3.022819996E0,1.038643122E-1
4.175368586E1,7.716720104E-1,-3.292012691E0,-9.343588352E-2
4.176171112E1,4.454930127E-1,-3.502559185E0,-4.471230507E-1
4.176970662E1,6.605547667E-2,-3.594372749E0,-7.538269162E-1
4.177770266E1,-1.766640544E-1,-3.650892735E0,-1.056911469E0
4.178569800E1,-3.195466995E-1,-3.609609127E0,-1.241080880E0
4.179369380E1,-3.810377121E-1,-3.611592770E0,-1.331127524E0
4.180168976E1,-4.483357072E-1,-3.453131199E0,-1.485841751E0
4.180968518E1,-3.224338889E-1,-3.397184849E0,-1.607729912E0
4.181771137E1,-1.114097238E-1,-3.304719925E0,-1.551429272E0
4.182570687E1,1.289947331E-1,-3.288216114E0,-1.336045861E0
4.183370283E1,2.248652577E-1,-3.151580811E0,-1.131872296E0
4.184169832E1,3.009975553E-1,-2.983441830E0,-1.108591318E0
4.184969428E1,3.429795504E-1,-2.711940765E0,-1.202090979E0
4.185768970E1,4.563944936E-1,-2.435124397E0,-1.257998705E0
4.186568581E1,5.745033026E-1,-2.181634426E0,-1.327666759E0
4.187371100E1,7.657856345E-1,-1.896378517E0,-1.389485121E0
4.188170673E1,9.457421899E-1,-1.452341080E0,-1.415390491E0
4.188970307E1,1.024705291E0,-1.019336700E0,-1.361247420E0
4.189769826E1,1.050235510E0,-6.525993347E-1,-1.321164489E0
4.190569391E1,8.886254430E-1,-2.083044052E-1,-1.290356636E0
4.191368972E1,4.445460439E-1,1.290416718E-1,-1.286750793E0
4.192168506E1,-1.718901396E-1,5.748319626E-1,-1.149846315E0
4.192971156E1,-8.038403392E-1,1.018755913E0,-8.939443827E-1
4.193770675E1,-1.185065031E0,1.352520943E0,-5.377391577E-1
4.194570301E1,-1.349507332E0,1.568508148E0,-1.390566230E-1
4.195369874E1,-1.281423330E0,1.754841805E0,2.000993490E-1
4.196169362E1,-9.568364024E-1,1.952061653E0,3.371417522E-1
4.196968989E1,-5.165868402E-1,2.035388947E0,5.717498064E-2
4.197768469E1,-4.369258881E-1,2.172566414E0,-4.475228488E-1
4.198571150E1,-6.367424726E-1,2.488409996E0,-1.093875408E0
4.199370638E1,-7.865121961E-1,2.880437851E0,-1.690928340E0
4.200170303E1,-7.297346592E-1,3.155170441E0,-2.101644993E0
4.200969837E1,-1.195135355E0,4.040818214E0,-2.484983921E0
4.201769348E1,-1.243535757E0,4.321577072E0,-2.963525534E0
4.202569044E1,-1.290188074E0,4.697145462E0,-3.193969727E0
4.203368525E1,-1.037641883E0,4.641236305E0,-2.984125853E0
4.204171151E1,-5.638076663E-1,4.345657349E0,-1.946023107E0
4.204970724E1,-1.447235346E-1,3.733727455E0,-7.591180205E-1
4.205770228E1,8.210819960E-2,3.192660332E0,4.190630913E-1
4.206569862E1,2.745885551E-1,2.496611595E0,1.429039598E0
4.207369373E1,2.435222864E-1,1.912765503E0,1.967190385E0
4.208168954E1,7.196956873E-2,1.344626427E0,2.181113243E0
4.208968496E1,-2.079670429E-1,9.855165482E-1,1.970249653E0
4.209771114E1,-3.682666421E-1,7.781543732E-1,1.457851410E0
4.210570710E1,-5.294649005E-1,5.458555222E-1,7.253956795E-1
4.211370221E1,-5.074020028E-1,2.413234711E-1,2.613450289E-1
4.212169887E1,-5.847342610E-1,-2.251052856E-2,-4.042971134E-2
4.212969405E1,-5.074687004E-1,-3.795185089E-1,-6.874561310E-2
4.213768917E1,-5.495499969E-1,-6.430463791E-1,-5.919170380E-2
4.214568520E1,-6.531191468E-1,-1.000024796E0,-5.329251289E-2
4.215371101E1,-6.919887066E-1,-1.302183151E0,1.916706562E-2
4.216170743E1,-6.087664962E-1,-1.578376770E0,3.372073174E-3
4.216970254E1,-4.830576777E-1,-1.840552807E0,-1.167132854E-1
4.217769880E1,-4.238522649E-1,-2.043112755E0,-3.473281860E-1
4.218569392E1,-2.541128993E-1,-2.274401665E0,-6.159918904E-1
4.219368995E1,-1.501968503E-1,-2.536406517E0,-8.700544834E-1
4.220168514E1,-4.654729366E-2,-2.706806660E0,-8.782091141E-1
4.220971133E1,1.170323491E-1,-2.785349369E0,-6.802309752E-1
4.221770736E1,2.359439731E-1,-2.911105633E0,-4.728004932E-1
4.222570332E1,2.298055887E-1,-3.034084320E0,-3.154951334E-1
4.223369944E1,2.013263702E-1,-2.991542816E0,-2.653056383E-1
4.224169386E1,1.661848426E-1,-3.027802944E0,-2.573100328E-1
4.224968905E1,5.959916115E-2,-3.032895565E0,-2.784054279E-1
4.225768446E1,-1.081208587E-1,-2.985496998E0,-2.658253908E-1
4.226571158E1,-3.840901256E-1,-2.835632324E0,-3.359178305E-1
4.227370692E1,-7.590414286E-1,-2.657720089E0,-3.599818945E-1
4.228170296E1,-8.528488874E-1,-2.461531162E0,-3.724696636E-1
4.228969814E1,-7.738562822E-1,-2.278351307E0,-3.778185844E-1
4.229769349E1,-6.814413071E-1,-2.067494869E0,-4.208714962E-1
4.230568929E1,-4.954881668E-1,-1.802422047E0,-5.238040686E-1
4.231368502E1,-2.654193640E-1,-1.518686295E0,-5.183925629E-1
4.232171113E1,-1.255007982E-1,-1.294912338E0,-5.492395759E-1
4.232970717E1,-9.137451649E-2,-1.058999062E0,-5.862796307E-1
4.233770320E1,-6.710469723E-2,-8.012418747E-1,-5.392419696E-1
4.234569870E1,-1.685560942E-1,-5.696392059E-1,-3.194886446E-1
4.235369435E1,-2.511777878E-1,-2.520332336E-1,-4.052197933E-2
4.236168946E1,-1.779409647E-1,2.895355225E-2,2.376011610E-1
4.236968496E1,-1.007524729E-1,4.645042419E-1,4.112666845E-1
4.237771107E1,1.309483051E-1,7.577562332E-1,2.354139090E-1
4.238570626E1,3.830242157E-1,1.114641190E0,-1.622503996E-1
4.239370314E1,5.968350172E-1,1.411565781E0,-5.505261421E-1
4.240169856E1,6.834781766E-1,1.677846909E0,-8.146808743E-1
4.240969436E1,7.107557058E-1,1.944995880E0,-7.918348312E-1
4.241768886E1,6.843076944E-1,2.213332176E0,-5.316337347E-1
4.242571505E1,5.899289846E-1,2.437145233E0,9.671962261E-2
4.243371109E1,4.272994995E-1,2.690014839E0,7.096061707E-1
4.244170766E1,2.643297315E-1,2.832099915E0,1.114128470E0
4.244970285E1,1.091674566E-1,2.929890633E0,1.267807603E0
4.245769850E1,1.566429734E-1,3.083778381E0,1.219142675E0
4.246569392E1,3.644227386E-1,3.267793655E0,8.227064610E-1
4.247368972E1,5.344570279E-1,3.377273560E0,9.467971325E-2
4.248171614E1,5.947062373E-1,3.415473938E0,-4.840682745E-1
4.248971187E1,7.449038029E-1,3.361545563E0,-1.007132292E0
4.249770668E1,8.749867678E-1,3.156419754E0,-1.180446625E0
4.250570310E1,9.991376400E-1,2.828677177E0,-1.048891783E0
4.251369813E1,1.051550627E0,2.426329613E0,-7.756406665E-1
4.252169455E1,9.261474609E-1,2.080486298E0,-4.522842765E-1
4.252969051E1,6.399991512E-1,1.740582466E0,-1.370867491E-1
4.253771639E1,3.625334799E-1,1.406272888E0,1.787877083E-1
4.254571097E1,2.136653066E-1,1.127344131E0,4.908622503E-1
4.255370669E1,2.274023890E-1,8.699655533E-1,9.561311007E-1
4.256170273E1,3.628424704E-1,6.073980331E-1,1.201148629E0
4.256969807E1,5.828788877E-1,2.819404602E-1,1.407240510E0
4.257769326E1,7.829768062E-1,-9.479331970E-2,1.425779223E0
4.258568930E1,9.643490314E-1,-4.005432129E-1,1.334991932E0
4.259371579E1,1.092250824E0,-6.473789215E-1,1.097362638E0
4.260171144E1,1.036512375E0,-9.236879349E-1,7.352175713E-1
4.260970756E1,8.476799726E-1,-1.095127106E0,1.895108223E-1
4.261770321E1,5.751363635E-1,-1.262001991E0,-4.314408302E-1
4.262569832E1,2.919504046E-1,-1.356971741E0,-9.071826935E-1
4.263369443E1,2.759307623E-2,-1.518726349E0,-1.310294032E0
4.264168977E1,-1.935876012E-1,-1.560359955E0,-1.484373569E0
4.264971596E1,-3.876522779E-1,-1.584720612E0,-1.492787719E0
4.265771138E1,-4.652478695E-1,-1.675576210E0,-1.345751762E0
4.266570711E1,-4.787908196E-1,-1.806871414E0,-1.228027940E0
4.267370222E1,-3.562361598E-1,-1.978922367E0,-8.957283497E-1
4.268169887E1,-1.229763627E-1,-2.077137947E0,-6.170920134E-1
4.268969337E1,2.402856946E-1,-2.185544014E0,-3.804547787E-1
4.269768971E1,4.568633437E-1,-2.184532166E0,-3.903057575E-1
4.270571621E1,5.268275142E-1,-2.129004955E0,-5.489449501E-1
4.271371132E1,5.327147245E-1,-2.061731815E0,-8.700445294E-1
4.272170682E1,4.752836823E-1,-1.991850376E0,-1.106929064E0
4.272970316E1,3.550274968E-1,-1.957273960E0,-1.455620289E0
4.273769820E1,1.028118432E-1,-1.873909473E0,-1.740507960E0
4.274569369E1,-1.445766389E-1,-1.808660984E0,-1.869263053E0
4.275368965E1,-4.758570790E-1,-1.677847862E0,-1.896802187E0
4.276171561E1,-7.604391575E-1,-1.546524048E0,-1.757014394E0
4.276971095E1,-1.034723401E0,-1.326500893E0,-1.443730593E0
4.277770706E1,-1.244189978E0,-1.135752678E0,-1.138659239E0
4.278570279E1,-1.394742608E0,-9.796628952E-1,-8.199942112E-1
4.279369875E1,-1.319627285E0,-7.052154541E-1,-4.940040112E-1
4.280169386E1,-1.010953069E0,-5.305166245E-1,-2.310878038E-1
4.280969028E1,-4.934783876E-1,-2.563791275E-1,-6.122577190E-2
4.281771616E1,-6.722849607E-2,-2.141475677E-2,-4.464936256E-2
4.282571097E1,3.293085396E-1,1.627073288E-1,1.654660702E-2
4.283370662E1,6.290595531E-1,4.038496017E-1,2.277374268E-3
4.284170242E1,7.584943175E-1,6.662616730E-1,-6.878709793E-2
4.284969877E1,7.403111458E-1,9.644765854E-1,-2.217681408E-1
4.285769472E1,6.756182909E-1,1.324985504E0,-4.501683712E-1
4.286568930E1,6.428184509E-1,1.621102333E0,-6.401572227E-1
4.287371580E1,5.580886602E-1,1.927324295E0,-7.211948633E-1
4.288171114E1,2.876942158E-1,2.102391243E0,-1.004226685E0
4.288970664E1,9.804069996E-2,2.160579681E0,-1.222978354E0
4.289770329E1,-2.121994197E-1,2.252915382E0,-1.617617011E0
4.290569840E1,-5.288832188E-1,2.345991135E0,-1.865929484E0
4.291369436E1,-9.572750926E-1,2.566885948E0,-1.996426940E0
4.292168947E1,-1.393929005E0,2.978260994E0,-1.754277706E0
4.292971535E1,-1.696536779E0,3.249540329E0,-1.546373129E0
4.293771116E1,-1.854405642E0,3.390276909E0,-1.306210041E0
4.294570627E1,-2.007908344E0,3.484096527E0,-9.440654516E-1
4.295370261E1,-1.915088177E0,3.444701195E0,-1.934785843E-1
4.296169857E1,-1.551362276E0,3.269201279E0,5.128046274E-1
4.296969407E1,-1.278958201E0,2.968912125E0,9.880478382E-1
4.297769002E1,-1.064857960E0,2.694144249E0,1.232998133E0
4.298571537E1,-9.938716888E-1,2.497399330E0,1.344506025E0
4.299371194E1,-1.023616552E0,2.309131622E0,1.368205070E0
4.300170775E1,-1.153126717E0,2.098048210E0,1.292344570E0
4.300970247E1,-1.328185081E0,1.933655739E0,1.166509986E0
4.301769766E1,-1.456547022E0,1.598200798E0,9.682458639E-1
4.302569393E1,-1.467147827E0,1.266626358E0,8.474072218E-1
4.303369004E1,-1.307562590E0,8.335771561E-1,6.723918915E-1
4.304171592E1,-1.076521873E0,4.595928192E-1,4.671914577E-1
4.304971134E1,-8.840097785E-1,2.026205063E-1,2.254068851E-1
4.305770645E1,-6.393909454E-1,-1.356067657E-1,-2.593231201E-2
4.306570272E1,-4.633502960E-1,-3.943586349E-1,-1.803519726E-1
4.307369814E1,-2.996443212E-1,-6.884346008E-1,-3.077560663E-1
4.308169387E1,-1.594057977E-1,-9.720907211E-1,-4.518651962E-1
4.308968967E1,-1.408433020E-1,-1.219192505E0,-5.184177160E-1
4.309771555E1,-2.593852878E-1,-1.470772743E0,-6.807651520E-1
4.310571128E1,-4.072084129E-1,-1.650469780E0,-8.279916048E-1
4.311370639E1,-4.920755327E-1,-1.909270287E0,-1.245028734E0
4.312170266E1,-5.651336908E-1,-2.148781300E0,-1.693807125E0
4.312969869E1,-5.872025490E-1,-2.323122978E0,-1.875011802E0
4.313769411E1,-5.962721705E-1,-2.321672440E0,-1.905955791E0
4.314568961E1,-5.102729797E-1,-2.357359886E0,-1.851851225E0
4.315371634E1,-3.666894436E-1,-2.528647423E0,-1.701335192E0
4.316171184E1,-3.417378664E-1,-2.565165043E0,-1.469958544E0
4.316970756E1,-4.042457342E-1,-2.538976669E0,-1.254612565E0
4.317770298E1,-4.950430989E-1,-2.498081684E0,-9.495323896E-1
4.318569833E1,-6.780704260E-1,-2.368679047E0,-6.345599890E-1
4.319369413E1,-7.464560866E-1,-2.211077690E0,-3.367588520E-1
4.320169016E1,-6.948409081E-1,-2.076154232E0,-9.463763237E-2
4.320971628E1,-7.146589756E-1,-1.911552429E0,3.331542015E-2
4.321771116E1,-6.694583893E-1,-1.724377632E0,1.161124706E-1
4.322570689E1,-4.566535950E-1,-1.505030632E0,3.810007572E-1
4.323370254E1,-2.182016373E-1,-1.289064407E0,6.257307529E-1
4.324169888E1,1.097244620E-1,-1.064686775E0,8.851537704E-1
4.324969438E1,3.141556680E-1,-8.411626816E-1,1.110696316E0
4.325769064E1,5.327042937E-1,-6.302652359E-1,1.344885588E0
4.326571660E1,6.087087989E-1,-3.841886520E-1,1.708217859E0
4.327371140E1,6.957381368E-1,-2.105607986E-1,1.810132742E0
4.328170706E1,7.068823576E-1,-8.298492432E-2,1.787379026E0
4.328970378E1,5.899390578E-1,1.854286194E-1,1.682108521E0
4.329769890E1,6.132266521E-1,4.560327530E-1,1.368300200E0
4.330569524E1,4.739848971E-1,7.410821915E-1,1.198649764E0
4.331368904E1,3.596573472E-1,9.665927887E-1,9.271972179E-1
4.332171531E1,2.024854124E-1,1.065219879E0,6.391350031E-1
4.332971073E1,9.712243080E-2,1.223626137E0,4.111884832E-1
4.333770707E1,2.597755194E-2,1.418045998E0,2.421026230E-1
4.334570311E1,2.257335186E-2,1.574403763E0,1.956429482E-1
4.335369845E1,1.238600910E-1,1.709383011E0,2.437853813E-1
4.336169418E1,2.497170269E-1,1.806047440E0,1.509965658E-1
4.336968937E1,4.429628253E-1,1.941117287E0,-5.634212494E-2
4.337771702E1,6.502437592E-1,2.230066299E0,-4.626221657E-1
4.338571221E1,9.064155817E-1,2.553829193E0,-8.108791709E-1
4.339370724E1,1.076373816E0,2.855447769E0,-1.056539774E0
4.340170297E1,1.171372533E0,3.005973816E0,-1.299824715E0
4.340969901E1,9.816986322E-1,3.096467018E0,-1.402110219E0
4.341769389E1,6.386319399E-1,3.074241638E0,-1.306357861E0
4.342572038E1,3.207871318E-1,2.888901711E0,-9.165016413E-1
4.343371519E1,1.232254207E-1,2.616398811E0,-3.579267263E-1
4.344171176E1,2.482593060E-2,2.191215515E0,1.542874575E-1
4.344970664E1,8.657684922E-2,1.787318230E0,5.576105118E-1
4.345770268E1,3.314295709E-1,1.497671127E0,1.090886712E0
4.346569864E1,7.620556355E-1,1.338252068E0,1.461453795E0
4.347369467E1,1.059698820E0,1.184343338E0,1.506255627E0
4.348172002E1,1.082675576E0,1.069361687E0,1.309831262E0
4.348971567E1,1.009062052E0,8.834161758E-1,8.708879948E-1
4.349771139E1,9.987397194E-1,6.485490799E-1,4.019763470E-1
4.350570774E1,9.277095795E-1,3.651075363E-1,-1.537182331E-1
4.351370223E1,8.656059504E-1,1.247043610E-1,-6.798551083E-1
4.352169919E1,7.662252188E-1,-2.636947632E-1,-1.308637500E0
4.352969407E1,6.879881620E-1,-6.058654785E-1,-1.759602070E0
4.353771988E1,4.586747885E-1,-9.065456390E-1,-2.001868725E0
4.354571530E1,1.564669609E-1,-1.230084419E0,-2.022822380E0
4.355371164E1,-1.201497912E-1,-1.449904442E0,-1.658482075E0
4.356170737E1,-2.021182775E-1,-1.616144180E0,-9.934797287E-1
4.356970256E1,-6.527718902E-2,-1.832816124E0,-1.877980232E-1
4.357769852E1,1.554349661E-1,-1.988359451E0,3.067963123E-1
4.358569486E1,4.610672891E-1,-2.198770046E0,4.362169504E-1
4.359372074E1,5.916296244E-1,-2.289130211E0,2.747738361E-1
4.360171593E1,7.784398198E-1,-2.368997574E0,-1.945276260E-1
4.360971166E1,8.733765483E-1,-2.351141453E0,-6.843038797E-1
4.361770700E1,9.061759710E-1,-2.378409863E0,-1.038212061E0
4.362570280E1,8.572068214E-1,-2.375948429E0,-1.309621334E0
4.363369784E1,7.263467312E-1,-2.341355324E0,-1.400591135E0
4.364169480E1,5.130797625E-1,-2.267556667E0,-1.389687419E0
4.364972014E1,1.464236975E-1,-2.245912552E0,-1.390083075E0
4.365771587E1,-2.593631744E-1,-2.173892975E0,-1.385766387E0
4.366571129E1,-6.317132711E-1,-2.083103180E0,-1.202712774E0
4.367370786E1,-9.198507071E-1,-1.911799908E0,-8.775438666E-1
4.368170297E1,-9.513880014E-1,-1.789868832E0,-5.440583229E-1
4.368969786E1,-7.991080880E-1,-1.605226517E0,-4.751678705E-1
4.369769381E1,-5.536512136E-1,-1.455775261E0,-7.022329569E-1
4.370572062E1,-1.179531515E-1,-1.132449150E0,-1.156326294E0
4.371371642E1,2.459895909E-1,-8.113212585E-1,-1.502671361E0
4.372171123E1,5.997197628E-1,-4.148159027E-1,-1.717472076E0
4.372970688E1,7.314833999E-1,-5.959796906E-2,-1.667964697E0
4.373770230E1,8.455594778E-1,1.369085312E-1,-1.555046916E0
4.374569833E1,8.540991545E-1,3.541145325E-1,-1.270198822E0
4.375369406E1,7.751026154E-1,5.363807678E-1,-1.030427456E0
4.376172002E1,5.393121839E-1,8.244628906E-1,-7.778595090E-1
4.376971628E1,1.825108230E-1,1.062355995E0,-6.972838044E-1
4.377771147E1,-2.192053199E-1,1.359886169E0,-7.226754427E-1
4.378570689E1,-4.861813486E-1,1.702599525E0,-5.332452059E-1
4.379370285E1,-6.431630850E-1,1.966151237E0,-4.079039097E-1
4.380169835E1,-6.395162344E-1,2.186233521E0,-5.200595856E-1
4.380969377E1,-6.734997034E-1,2.329202652E0,-8.042197227E-1
4.381772088E1,-6.897900105E-1,2.524810791E0,-1.193765521E0
4.382571538E1,-8.096199036E-1,2.842835426E0,-1.566135287E0
4.383371195E1,-1.041298270E0,3.142891884E0,-1.790654182E0
4.384170745E1,-1.249623060E0,3.377423286E0,-1.771560788E0
4.384970256E1,-1.359347343E0,3.592516899E0,-1.529466987E0
4.385769883E1,-1.287914753E0,3.673320770E0,-1.130784512E0
4.386569425E1,-1.173792124E0,3.504763603E0,-3.270195723E-1
4.387372074E1,-8.965531588E-1,3.095800400E0,5.776793957E-1
4.388171532E1,-6.057510376E-1,2.711140633E0,1.338515997E0
4.388971158E1,-3.742118180E-1,2.160211563E0,1.908209682E0
4.389770670E1,-2.521470785E-1,1.803497314E0,2.171705008E0
4.390570273E1,-2.782087624E-1,1.575868607E0,2.111465931E0
4.391369815E1,-4.063836038E-1,1.522678375E0,1.722397804E0
4.392169388E1,-4.680736065E-1,1.453393936E0,1.274312139E0
4.392972007E1,-3.302221298E-1,1.320636749E0,9.081168175E-1
4.393771649E1,-1.125645638E-1,1.120273590E0,6.043710709E-1
4.394571160E1,1.467483044E-1,7.568273544E-1,2.568465471E-1
4.395370794E1,3.693924248E-1,4.294357300E-1,-3.780043125E-2
4.396170398E1,5.383845568E-1,1.527900696E-1,-3.167524338E-1
4.396969786E1,6.262797117E-1,-9.196853638E-2,-5.908855200E-1
4.397769451E1,5.766302347E-1,-2.972974777E-1,-7.971271276E-1
4.398571978E1,4.991713464E-1,-5.755949020E-1,-9.527940750E-1
4.399371543E1,3.701445460E-1,-9.221639633E-1,-1.049914718E0
4.400171215E1,2.814756632E-1,-1.219978333E0,-1.082182646E0
4.400970665E1,8.124524355E-2,-1.601032734E0,-1.134110451E0
4.401770299E1,-1.714549661E-1,-1.840096951E0,-1.096250415E0
4.402569811E1,-4.483788013E-1,-2.052338123E0,-9.942723513E-1
4.403369353E1,-7.382876277E-1,-2.264499664E0,-8.965028524E-1
4.404172187E1,-9.649120569E-1,-2.390818119E0,-7.612509727E-1
4.404971575E1,-1.116262078E0,-2.443706989E0,-6.521773338E-1
4.405771171E1,-1.152644634E0,-2.492791176E0,-5.954781771E-1
4.406570720E1,-1.061947823E0,-2.542899132E0,-5.721160173E-1
4.407370324E1,-7.835578918E-1,-2.598692894E0,-5.634808540E-1
4.408169835E1,-5.777062178E-1,-2.645520210E0,-5.746189356E-1
4.408969400E1,-4.326525331E-1,-2.709539890E0,-5.959434509E-1
4.409771966E1,-4.546486735E-1,-2.697206497E0,-6.348445415E-1
4.410571600E1,-4.938403964E-1,-2.673172951E0,-6.366156340E-1
4.411371073E1,-6.078302264E-1,-2.594513416E0,-7.106190920E-1
4.412170799E1,-7.687526345E-1,-2.432615280E0,-7.058500051E-1
4.412970187E1,-8.806685805E-1,-2.189968109E0,-6.468008757E-1
4.413769860E1,-9.219340086E-1,-1.878806114E0,-5.380337238E-1
4.414569425E1,-8.416863680E-1,-1.669169903E0,-4.340840578E-1
4.415372044E1,-6.108106375E-1,-1.446093559E0,-5.814771652E-1
4.416171563E1,-4.542808533E-1,-1.218703270E0,-7.968652248E-1
4.416971105E1,-1.506758332E-1,-9.984388351E-1,-8.979892731E-1
4.417770701E1,1.189985275E-1,-6.315279007E-1,-8.153566122E-1
4.418570212E1,5.459704995E-1,-3.285846710E-1,-6.179484129E-1
4.419369823E1,8.164485097E-1,3.895759583E-3,-4.874345064E-1
4.420169396E1,8.939447999E-1,1.600065231E-1,-4.685504436E-1
4.420972069E1,7.734426260E-1,4.365949631E-1,-3.960672617E-1
4.421771557E1,6.227135062E-1,6.223268509E-1,-3.226566315E-1
4.422571153E1,4.625093639E-1,7.609758377E-1,-2.163326740E-1
4.423370733E1,2.187972069E-1,9.570980072E-1,-1.529676914E-1
4.424170298E1,-5.037277937E-2,1.193788528E0,-8.955574036E-2
4.424969848E1,-2.794816494E-1,1.554903030E0,-9.422898293E-2
4.425769444E1,-4.546340108E-1,1.914843559E0,5.097627640E-3
4.426571909E1,-5.327755213E-1,2.280586243E0,1.594587564E-1
4.427371612E1,-5.543287396E-1,2.690241814E0,4.335597754E-1
4.428171154E1,-3.776564002E-1,2.941618919E0,6.778630018E-1
4.428970627E1,3.105074167E-2,3.163861275E0,9.197832346E-1
4.429770230E1,5.439324379E-1,3.134307861E0,1.030793905E0
4.430569811E1,8.969766498E-1,3.066263199E0,9.938893318E-1
4.431372461E1,1.247541666E0,2.969628334E0,7.770196199E-1
4.432172056E1,1.406281352E0,2.885600090E0,4.909772873E-1
4.432971575E1,1.398036003E0,2.764400482E0,1.789349318E-1
4.433771171E1,1.360299110E0,2.580395699E0,4.594230652E-2
4.434570721E1,1.304370403E0,2.360075951E0,1.006978750E-1
4.435370286E1,1.318684816E0,2.002486229E0,3.239308596E-1
4.436169859E1,1.242348790E0,1.708178520E0,6.012070179E-1
4.436972478E1,1.157692194E0,1.490913391E0,1.042856455E0
4.437771989E1,1.080864668E0,1.328258514E0,1.431816816E0
4.438571623E1,1.048766255E0,1.133113861E0,1.604162455E0
4.439371142E1,9.221230745E-1,9.527750015E-1,1.578970671E0
4.440170684E1,8.472034335E-1,8.254766464E-1,1.404314280E0
4.440970311E1,8.074678183E-1,6.508827209E-1,1.136621952E0
4.441776691E1,9.155935049E-1,4.100761414E-1,7.509276867E-1
4.442572533E1,1.076165676E0,2.616844177E-1,3.697879314E-1
4.443372052E1,1.138069391E0,1.345005035E-1,-1.263725758E-1
4.444171617E1,1.078215957E0,2.201366425E-2,-5.369395018E-1
4.444971198E1,8.411414623E-1,-7.057476044E-2,-8.448207378E-1
4.445770732E1,6.156080961E-1,-1.861467361E-1,-9.745522738E-1
4.446570274E1,4.023213089E-1,-3.562202454E-1,-9.367197752E-1
4.447369793E1,2.504623532E-1,-5.813684464E-1,-7.935580015E-1
4.448172473E1,1.014585197E-1,-8.000812531E-1,-6.305284500E-1
4.448971954E1,3.127732873E-2,-9.672307968E-1,-6.303617954E-1
4.449771619E1,5.316317081E-2,-1.118542671E0,-6.650676727E-1
4.450571191E1,5.626606941E-2,-1.223550797E0,-6.796346903E-1
4.451370818E1,1.637003273E-1,-1.348650932E0,-8.739029169E-1
4.452170306E1,3.042623401E-1,-1.531814575E0,-1.131504178E0
4.452969841E1,4.394590557E-1,-1.679041862E0,-1.416757107E0
4.453772429E1,4.143237472E-1,-1.775275230E0,-1.646532774E0
4.454572009E1,2.984248698E-1,-1.865708351E0,-1.731475353E0
4.455371543E1,1.348383874E-1,-1.947898388E0,-1.758186936E0
4.456171062E1,-1.002699137E-1,-1.974028111E0,-1.762308478E0
4.456970689E1,-3.445511460E-1,-1.973165512E0,-1.677781224E0
4.457770331E1,-6.761278510E-1,-1.947952747E0,-1.606471419E0
4.458569834E1,-9.235122204E-1,-1.946820259E0,-1.491013646E0
4.459372430E1,-1.141867995E0,-1.819445610E0,-1.348396063E0
4.460172057E1,-1.338790417E0,-1.698063850E0,-1.243348241E0
4.460971599E1,-1.563358188E0,-1.515674591E0,-1.223736882E0
4.461771202E1,-1.690616846E0,-1.245820045E0,-1.256965876E0
4.462570683E1,-1.718403578E0,-9.551954269E-1,-1.248917580E0
4.463370256E1,-1.422615886E0,-7.032957077E-1,-1.289608479E0
4.464169867E1,-1.034761906E0,-4.753961563E-1,-1.238904715E0
4.464972447E1,-6.708081365E-1,-2.640399933E-1,-1.135843039E0
4.465772082E1,-4.291235507E-1,1.727104187E-2,-9.531138539E-1
4.466571631E1,-2.668354213E-1,2.990884781E-1,-7.478572130E-1
4.467371142E1,-5.591374636E-2,5.263061523E-1,-5.533481836E-1
4.468170623E1,2.025410533E-2,7.875070572E-1,-3.839064837E-1
4.468970257E1,-1.674684882E-2,1.003678322E0,-1.988455057E-1
4.469769822E1,-9.563639760E-2,1.198675156E0,-9.587454796E-2
4.470572449E1,-2.550207376E-1,1.327021599E0,-2.238011360E-2
4.471372106E1,-4.987021089E-1,1.479638100E0,1.229894161E-2
4.472171564E1,-8.308178186E-1,1.725670815E0,1.271557808E-1
4.472971190E1,-1.155994654E0,2.004971504E0,1.440869570E-1
4.473770740E1,-1.565776110E0,2.427397728E0,5.473399162E-2
4.474570251E1,-1.904844165E0,2.827777863E0,-1.250976324E-1
4.475369762E1,-2.204603672E0,3.362018585E0,-2.140811682E-1
4.476172466E1,-2.262005329E0,3.805443764E0,-2.689741850E-1
4.476971954E1,-2.168953419E0,4.004942894E0,-2.736544609E-1
4.477771550E1,-1.766918302E0,4.063598633E0,-2.952186465E-1
4.478571130E1,-1.394135714E0,3.900231361E0,-2.598983645E-1
4.479370695E1,-8.413678408E-1,3.539067268E0,-2.361369729E-1
4.480170307E1,-2.910210192E-1,2.906031609E0,-2.887830734E-1
4.480969841E1,-1.959294081E-3,2.367197990E0,-2.814981341E-1
4.481772398E1,1.006255746E-1,1.785785675E0,-3.266892433E-1
4.482572063E1,-3.764685988E-2,1.403421402E0,-5.328419805E-1
4.483371582E1,-5.013785958E-1,1.160241127E0,-8.934826255E-1
4.484171116E1,-8.841689825E-1,7.883434296E-1,-1.143198490E0
4.484970720E1,-1.441150188E0,7.186489105E-1,-1.265846968E0
4.485770300E1,-1.543222427E0,3.619375229E-1,-1.157218933E0
4.486569866E1,-1.659079909E0,1.969356537E-1,-9.772258997E-1
4.487372461E1,-1.548552632E0,-9.028816223E-2,-8.286234140E-1
4.488171965E1,-1.406572104E0,-3.849630356E-1,-6.122060418E-1
4.488971638E1,-1.160078764E0,-6.154565811E-1,-5.056505799E-1
4.489771141E1,-7.607411742E-1,-8.847093582E-1,-4.340735078E-1
4.490570714E1,-2.971680164E-1,-1.092013359E0,-4.627437592E-1
4.491370294E1,2.516701818E-2,-1.249075890E0,-6.194903851E-1
4.492169859E1,3.747764230E-1,-1.415350914E0,-7.300140858E-1
4.492972548E1,6.238549352E-1,-1.635816574E0,-7.549959421E-1
4.493772082E1,8.436745405E-1,-1.871990681E0,-7.001204491E-1
4.494571532E1,9.815784097E-1,-2.092771053E0,-5.575503111E-1
4.495371074E1,1.035914421E0,-2.243283749E0,-3.687444925E-1
4.496170685E1,9.959494472E-1,-2.378910065E0,-5.701661110E-2
4.496970258E1,9.660060406E-1,-2.430615425E0,2.701491117E-1
4.497769853E1,7.586995363E-1,-2.518533230E0,4.933404922E-1
4.498572503E1,4.474301934E-1,-2.645407200E0,4.614419937E-1
4.499372053E1,6.923413277E-2,-2.684381008E0,5.547691584E-1
4.500171587E1,-2.810227871E-1,-2.661810398E0,7.703566551E-1
4.500971137E1,-4.382211864E-1,-2.685797691E0,9.181102514E-1
4.501770733E1,-4.913578629E-1,-2.708884239E0,9.067745209E-1
4.502570282E1,-5.818481445E-1,-2.556558609E0,7.209687233E-1
4.503369916E1,-5.421386957E-1,-2.376957417E0,5.384715796E-1
4.504172466E1,-4.391495287E-1,-2.119525909E0,2.428554296E-1
4.504972108E1,-3.793701828E-1,-1.894032001E0,-9.574937820E-2
4.505771581E1,-4.528846741E-1,-1.546853065E0,-4.362608194E-1
4.506571184E1,-5.313752890E-1,-1.223608017E0,-7.408850193E-1
4.507370673E1,-4.524608850E-1,-9.574203491E-1,-7.778081298E-1
4.508170245E1,-2.511458397E-1,-6.499671936E-1,-8.113946915E-1
4.508969880E1,-5.234259367E-2,-4.903745651E-1,-7.431693673E-1
4.509772429E1,2.508750558E-1,-2.919416428E-1,-6.921382546E-1
4.510572102E1,3.422564268E-1,-1.360902786E-1,-5.881178975E-1
4.511371636E1,4.701364934E-1,-3.246688843E-2,-5.433879495E-1
4.512171094E1,5.653412342E-1,1.266765594E-1,-4.525661469E-1
4.512970697E1,5.414870381E-1,2.335605621E-1,-3.321487904E-1
4.513770324E1,3.442342877E-1,3.622207642E-1,-2.173135281E-1
4.514569835E1,8.943185210E-2,4.546585083E-1,-7.691311836E-2
4.515372523E1,-1.174424291E-1,5.636854172E-1,-1.495265961E-2
4.516172004E1,-3.446091413E-1,7.107801437E-1,1.025993824E-1
4.516971569E1,-4.416962862E-1,9.507932663E-1,2.951595783E-1
4.517771180E1,-4.169222116E-1,1.209295273E0,5.303653479E-1
4.518570784E1,-2.220287323E-1,1.524221420E0,5.493961573E-1
4.519370264E1,9.984147549E-2,1.749547005E0,3.489391804E-1
4.520169921E1,5.181400776E-1,2.103544235E0,-3.635787964E-2
4.520972425E1,7.964193821E-1,2.450373650E0,-6.722604036E-1
4.521772052E1,9.432606697E-1,2.635116577E0,-1.307058811E0
4.522571594E1,9.393081665E-1,2.854875565E0,-1.906608820E0
4.523371166E1,9.626748562E-1,3.050250053E0,-2.360504627E0
4.524170654E1,8.021038771E-1,3.267153740E0,-2.614672184E0
4.524970250E1,5.932525992E-1,3.336140633E0,-2.508302689E0
4.525769861E1,5.441498756E-1,3.178044319E0,-1.976625681E0
4.526572473E1,4.519096613E-1,2.814705849E0,-1.024514318E0
4.527372076E1,3.280071020E-1,2.400918007E0,-1.486397982E-1
4.528171626E1,2.553619742E-1,1.990946770E0,1.016582370E0
4.528971222E1,3.552613854E-1,1.682027817E0,1.990946412E0
4.529770764E1,4.531758130E-1,1.405915260E0,2.561323643E0
4.530570344E1,7.144391537E-1,1.034701347E0,2.950303316E0
4.531372894E1,8.890374303E-1,7.207899094E-1,2.938636780E0
4.532172382E1,1.065608025E0,4.399957657E-1,2.596214771E0
4.532972047E1,1.217642665E0,2.258634567E-1,2.037252426E0
4.533771674E1,1.330080152E0,1.415052414E-1,1.446046352E0
4.534571123E1,1.495786190E0,7.756137848E-2,6.749216318E-1
4.535370765E1,1.518140197E0,-3.939056396E-2,6.463885307E-2
4.536170246E1,1.390959263E0,-1.489162445E-1,-6.176367998E-1
4.536972926E1,1.082518935E0,-2.622890472E-1,-1.129118085E0
4.537772430E1,8.322888613E-1,-3.862295151E-1,-1.326436758E0
4.538572033E1,5.762276649E-1,-5.374383926E-1,-1.257896900E0
4.539371606E1,4.569553733E-1,-6.827316284E-1,-9.193290472E-1
4.540171117E1,3.708454072E-1,-7.723808289E-1,-3.055062294E-1
4.540970690E1,3.559235632E-1,-9.102096558E-1,2.023948431E-1
4.541770270E1,4.086201191E-1,-1.013080597E0,4.567623138E-1
4.542581318E1,4.265590906E-1,-1.205897331E0,5.815367699E-1
4.543380809E1,4.799363017E-1,-1.376600266E0,6.410796642E-1
4.544180469E1,5.241045356E-1,-1.529780388E0,4.429712296E-1
4.544979928E1,4.889967740E-1,-1.708610535E0,5.011320114E-2
4.545779588E1,3.896874487E-1,-1.854858398E0,-4.211550951E-1
4.546579225E1,2.587635219E-1,-1.943786621E0,-8.907867670E-1
4.547378708E1,2.340335846E-1,-2.003413677E0,-1.141988039E0
4.548181398E1,1.209925115E-1,-2.031127930E0,-1.384151340E0
4.548980943E1,-4.775711894E-2,-2.026884079E0,-1.371038795E0
4.549780456E1,-2.480823398E-1,-1.931026936E0,-1.358331800E0
4.550580031E1,-4.243778288E-1,-1.853833675E0,-1.173416615E0
4.551379576E1,-6.005164385E-1,-1.728743076E0,-9.487193823E-1
4.552179174E1,-5.638365149E-1,-1.711805344E0,-7.422347069E-1
4.552978780E1,-4.513295889E-1,-1.583148956E0,-5.402917862E-1
4.553781340E1,-3.413702846E-1,-1.496247292E0,-3.319932222E-1
4.554580830E1,-1.540001035E-1,-1.357876778E0,-2.863023281E-1
4.555380429E1,-1.714104414E-2,-1.177613258E0,-3.189074993E-1
4.556180065E1,2.027207613E-2,-8.927068710E-1,-4.414174557E-1
4.556979640E1,-3.317773342E-3,-5.170021057E-1,-6.252373457E-1
4.557779223E1,6.241142750E-3,-2.341728210E-1,-8.234125376E-1
4.558578760E1,4.387795925E-3,1.119203568E-1,-9.810451269E-1
4.559381328E1,1.852146089E-1,4.471197128E-1,-9.046592116E-1
4.560180933E1,3.604986668E-1,6.846761703E-1,-7.371428013E-1
4.560980532E1,4.939427674E-1,1.000674248E0,-3.078969717E-1
4.561780076E1,5.115697384E-1,1.216694832E0,9.777414799E-2
4.562579590E1,3.804337382E-1,1.368136406E0,3.655320406E-1
4.563379203E1,-3.516018391E-3,1.447354317E0,4.073258638E-1
4.564178686E1,-3.642202020E-1,1.533007622E0,3.133090734E-1
4.564981492E1,-8.095613122E-1,1.703807831E0,1.659259796E-1
4.565780906E1,-1.149427295E0,1.928483009E0,-2.313601971E-2
4.566580573E1,-1.545743465E0,2.214164734E0,-2.044909000E-1
4.567380056E1,-1.730282903E0,2.508153915E0,-3.867710829E-1
4.568179670E1,-1.748170733E0,2.786970139E0,-7.040408254E-1
4.568979245E1,-1.766554117E0,3.034479141E0,-1.236211777E0
4.569778820E1,-1.675184250E0,3.263624191E0,-1.676826835E0
4.570581472E1,-1.435253382E0,3.511234283E0,-2.008936882E0
4.571380886E1,-9.713190794E-1,3.397712708E0,-1.972257495E0
4.572180522E1,-4.472573102E-1,3.069199562E0,-1.645144463E0
4.572980128E1,5.720937252E-2,2.537455559E0,-9.769155383E-1
4.573779673E1,1.525032222E-1,2.141755104E0,-4.147458076E-1
4.574579225E1,5.079475045E-2,1.615452766E0,1.565974951E-1
4.575378800E1,-2.642208338E-1,1.214031219E0,5.873990059E-1
4.576181352E1,-5.933328867E-1,9.822673798E-1,8.612626791E-1
4.576980958E1,-8.969182968E-1,7.543888092E-1,1.071122408E0
4.577780510E1,-1.018001318E0,6.303997040E-1,1.165996552E0
4.578580147E1,-1.043067694E0,4.594526291E-1,1.150385737E0
4.579379683E1,-1.001740932E0,1.766548157E-1,1.027517557E0
4.580179228E1,-9.240940809E-1,-5.008697510E-2,9.013203382E-1
4.580978772E1,-6.152725220E-1,-3.091802597E-1,7.734960318E-1
4.581781424E1,-2.712918222E-1,-4.903764725E-1,6.776018143E-1
4.582580946E1,8.272957802E-2,-6.099777222E-1,5.234955549E-1
4.583380521E1,4.434263408E-1,-7.491617203E-1,1.167880297E-1
4.584180034E1,6.283431053E-1,-8.881549835E-1,-2.412743568E-1
4.584979702E1,6.618053913E-1,-1.019427299E0,-6.457967758E-1
4.585779269E1,5.681266785E-1,-1.175989151E0,-9.148445725E-1
4.586578783E1,4.535575509E-1,-1.345768929E0,-1.044268370E0
4.587381404E1,2.656381726E-1,-1.557269096E0,-1.207290292E0
4.588181072E1,2.122020721E-2,-1.722007751E0,-1.197586060E0
4.588980532E1,-3.222244382E-1,-1.914258003E0,-1.060492754E0
4.589780168E1,-6.175212860E-1,-2.088851929E0,-6.826063395E-1
4.590579713E1,-7.906397581E-1,-2.241965294E0,-2.345733643E-1
4.591379288E1,-8.181965351E-1,-2.410459518E0,1.843154430E-1
4.592178801E1,-8.416525722E-1,-2.537714481E0,4.294013977E-1
4.592981446E1,-6.343340278E-1,-2.621816635E0,6.510444880E-1
4.593780990E1,-4.066179991E-1,-2.603059292E0,6.249917746E-1
4.594580565E1,-1.823254228E-1,-2.615070343E0,4.051864147E-1
4.595380141E1,-6.260627508E-2,-2.484826088E0,-2.496325970E-2
4.596179808E1,2.043539286E-2,-2.355131626E0,-4.418371916E-1
4.596979260E1,-6.565272808E-3,-2.162923813E0,-8.158510923E-1
4.597778843E1,-2.166616917E-2,-2.017870903E0,-1.032498360E0
4.598581549E1,-5.410027504E-2,-1.948665142E0,-1.104430676E0
4.599381070E1,-5.909544230E-2,-1.814258099E0,-1.134005785E0
4.600180615E1,2.511930466E-2,-1.689003468E0,-1.118481398E0
4.600980098E1,1.407544613E-1,-1.424509048E0,-9.621546865E-1
4.601779734E1,3.452685475E-1,-1.083024025E0,-6.963555217E-1
4.602579278E1,5.008727312E-1,-8.035469055E-1,-5.424304605E-1
4.603378877E1,5.278791189E-1,-5.335054398E-1,-4.293746948E-1
4.604181529E1,4.426401854E-1,-3.160295486E-1,-3.188982010E-1
4.604981112E1,3.306462169E-1,-5.074501038E-3,-2.329617739E-1
4.605780679E1,2.370440960E-1,2.940177917E-1,-2.676163912E-1
4.606580170E1,1.451357603E-1,6.148157120E-1,-2.508159876E-1
4.607379799E1,1.570736170E-1,9.644994736E-1,-2.645254135E-1
4.608179374E1,1.098797917E-1,1.338468552E0,-2.121318579E-1
4.608978888E1,1.476715803E-1,1.614593506E0,-1.339373589E-1
4.609781547E1,3.482484818E-2,1.914105415E0,-4.028868675E-2
4.610581115E1,-6.920886040E-2,2.039718628E0,7.449078560E-2
4.611380667E1,-2.198819518E-1,2.125202179E0,1.212941408E-1
4.612180211E1,-3.989324570E-1,2.253830910E0,1.200982332E-1
4.612979817E1,-5.168435574E-1,2.418172836E0,1.795090437E-1
4.613779323E1,-5.781840086E-1,2.627547264E0,2.736802101E-1
4.614578929E1,-5.089081526E-1,2.716733932E0,2.231394053E-1
4.615381466E1,-4.419465661E-1,2.882318497E0,-4.024207592E-2
4.616181126E1,-3.587651253E-1,3.050286293E0,-3.770943284E-1
4.616980701E1,-1.943254471E-1,3.180387497E0,-5.343091488E-1
4.617780222E1,1.437067986E-1,3.237355232E0,-5.277993679E-1
4.618579766E1,4.807957113E-1,3.142368317E0,-3.404244184E-1
4.619379372E1,8.269935846E-1,2.965028763E0,-1.415489912E-1
4.620178848E1,1.063056588E0,2.714962959E0,-5.176818371E-2
4.620981530E1,1.100721836E0,2.552322388E0,-3.047406673E-2
4.621781144E1,1.044220567E0,2.343092918E0,4.500758648E-2
4.622580596E1,9.272794724E-1,2.130027771E0,1.834101677E-1
4.623380202E1,6.237719059E-1,1.972752571E0,3.521667719E-1
4.624179777E1,3.653171360E-1,1.719976425E0,6.102514267E-1
4.624979383E1,2.471495867E-1,1.351951599E0,7.394633293E-1
4.625778928E1,5.223429203E-2,8.801145554E-1,8.831920624E-1
4.626581549E1,3.971862793E-2,4.836416245E-1,1.004019856E0
4.627381155E1,1.777156591E-1,9.055805206E-2,1.090016961E0
4.628180630E1,4.570253789E-1,-1.795148849E-1,1.081730723E0
4.628980236E1,7.391849756E-1,-4.531688690E-1,8.278968334E-1
4.629779819E1,8.925470710E-1,-6.723508835E-1,3.934222460E-1
4.630579417E1,8.715559244E-1,-8.698129654E-1,1.353834867E-1
4.631378969E1,8.595360518E-1,-1.129015923E0,3.457212448E-2
4.632181583E1,8.774574399E-1,-1.397149086E0,2.264133692E-1
4.632981135E1,9.586648941E-1,-1.641269684E0,4.890437126E-1
4.633780771E1,1.019351840E0,-1.914674282E0,7.242600918E-1
4.634580224E1,9.974412322E-1,-2.079335690E0,6.566302776E-1
4.635379883E1,8.451499343E-1,-2.240934372E0,1.922954321E-1
4.636179459E1,5.421837568E-1,-2.368187904E0,-3.947328329E-1
4.636979003E1,2.627852559E-1,-2.426954746E0,-8.987012506E-1
4.637781655E1,2.859950066E-2,-2.472025871E0,-1.145191789E0
4.638581138E1,-1.931127310E-1,-2.417014599E0,-1.078733444E0
4.639380782E1,-2.434262633E-1,-2.405649185E0,-9.223323464E-1
4.640180296E1,-1.632540226E-1,-2.435877800E0,-6.905518174E-1
4.640979840E1,5.759572983E-2,-2.428728104E0,-5.318483114E-1
4.641779408E1,4.047086239E-1,-2.470331192E0,-6.579179764E-1
4.642582029E1,5.728442073E-1,-2.351859570E0,-8.997281790E-1
4.643381612E1,7.437199950E-1,-2.271336555E0,-1.181487679E0
4.644181179E1,7.875094414E-1,-2.132567883E0,-1.498070598E0
4.644980755E1,6.953511238E-1,-1.916244030E0,-1.647033095E0
4.645780391E1,3.756698668E-1,-1.610322952E0,-1.727808118E0
4.646579820E1,-2.333498001E-2,-1.219700813E0,-1.659979701E0
4.647379418E1,-4.622473121E-1,-9.410915375E-1,-1.495622635E0
4.648182048E1,-6.883264184E-1,-6.456069946E-1,-1.219272256E0
4.648981623E1,-7.591962814E-1,-4.389009476E-1,-1.063203216E0
4.649781229E1,-6.672452688E-1,-2.301301956E-1,-9.947037697E-1
4.650580796E1,-4.644720554E-1,-6.714344025E-2,-8.721265793E-1
4.651380402E1,-1.027677059E-1,1.245269775E-1,-7.796569467E-1
4.652179916E1,3.653868437E-1,3.498229980E-1,-9.437381029E-1
4.652979491E1,5.004077554E-1,6.352844238E-1,-1.046414018E0
4.653782181E1,4.938860834E-1,1.050464630E0,-1.158475041E0
4.654581718E1,3.868865669E-1,1.423288345E0,-1.151113510E0
4.655381270E1,2.695825100E-1,1.674681664E0,-1.093892455E0
4.656180745E1,6.789803505E-3,1.984704971E0,-9.382395744E-1
4.656980290E1,-2.209407985E-1,2.192633629E0,-8.138152361E-1
4.657779903E1,-4.840804636E-1,2.329293251E0,-7.709738612E-1
4.658579471E1,-7.403737307E-1,2.399285316E0,-7.436211109E-1
4.659382123E1,-8.899089694E-1,2.423842430E0,-8.378425837E-1
4.660181614E1,-1.099583626E0,2.575346947E0,-8.293693066E-1
4.660981150E1,-1.299746275E0,2.789122581E0,-8.530588150E-1
4.661780787E1,-1.481598973E0,2.991062164E0,-9.416449070E-1
4.662580370E1,-1.592779636E0,3.150213242E0,-9.676748514E-1
4.663379914E1,-1.651627064E0,3.247548103E0,-9.774240255E-1
4.664179512E1,-1.550238848E0,3.072526932E0,-8.211522102E-1
4.664982134E1,-1.407820702E0,2.919805527E0,-5.118336678E-1
4.665781740E1,-1.128879547E0,2.528173447E0,-1.358783245E-2
4.666581284E1,-9.284603596E-1,2.162994385E0,4.139928818E-1
4.667380805E1,-7.647069097E-1,1.843076706E0,5.708447695E-1
4.668180319E1,-7.307106853E-1,1.625707626E0,6.115437746E-1
4.668979894E1,-8.408759832E-1,1.467717171E0,4.861596823E-1
4.669779615E1,-1.053297997E0,1.371521950E0,3.350520134E-1
4.670582144E1,-1.178672075E0,1.306019783E0,2.240091562E-1
4.671381727E1,-1.152800202E0,1.139566422E0,2.530804873E-1
4.672181272E1,-1.102496505E0,9.822502136E-1,3.389595747E-1
4.672980785E1,-1.015568256E0,7.933139801E-1,4.175900221E-1
4.673780476E1,-7.832962275E-1,5.751457214E-1,4.488433599E-1
4.674579966E1,-5.573186278E-1,3.135137558E-1,4.467705488E-1
4.675379565E1,-3.286302090E-1,1.188106537E-1,4.461001158E-1
4.676182186E1,-3.327786922E-2,-2.302932739E-2,5.050140619E-1
4.676981707E1,1.901502311E-1,-2.530345917E-1,5.363888741E-1
4.677781336E1,4.334590733E-1,-4.777603149E-1,6.762356758E-1
4.678580888E1,6.953504682E-1,-8.217306137E-1,8.052040339E-1
4.679380371E1,9.042999148E-1,-1.163057327E0,8.218957186E-1
4.680179908E1,9.539350271E-1,-1.559357643E0,7.469816208E-1
4.680979491E1,8.259150982E-1,-1.860027790E0,4.938741922E-1
4.681782143E1,5.537461042E-1,-2.120159626E0,1.868343353E-1
4.682581718E1,3.124269545E-1,-2.342014313E0,-2.727863789E-1
4.683381316E1,7.338845730E-2,-2.410479069E0,-4.725047350E-1
4.684180922E1,-1.295722723E-1,-2.516875267E0,-6.082295179E-1
4.684980405E1,-2.668554187E-1,-2.543870926E0,-5.129361153E-1
4.685779957E1,-3.931099176E-1,-2.537283897E0,-3.598808050E-1
4.686579586E1,-5.408379436E-1,-2.624481201E0,-2.445791960E-1
4.687382207E1,-6.684114337E-1,-2.659703732E0,-1.969388723E-1
4.688181752E1,-6.717117429E-1,-2.695745468E0,-2.600163221E-1
4.688981366E1,-6.299124956E-1,-2.706250191E0,-4.222638607E-1
4.689780879E1,-5.850417614E-1,-2.678971291E0,-5.152502060E-1
4.690580446E1,-5.162797570E-1,-2.558779716E0,-4.537877440E-1
4.691380022E1,-4.281135798E-1,-2.391149044E0,-2.977688909E-1
4.692179605E1,-3.223474622E-1,-2.233632088E0,-2.160673141E-1
4.692982287E1,-2.781594396E-1,-2.005011559E0,-2.526280284E-1
4.693781824E1,-1.467010379E-1,-1.733780384E0,-3.538396955E-1
4.694581338E1,9.183067083E-2,-1.424404144E0,-5.218530297E-1
4.695380890E1,3.455713391E-1,-1.110121727E0,-6.646475792E-1
4.696180457E1,6.287868023E-1,-7.617902756E-1,-7.820715904E-1
4.696979979E1,7.854843140E-1,-4.676208496E-1,-8.214525580E-1
4.697779515E1,9.309452772E-1,-2.275524139E-1,-8.983943462E-1
4.698582268E1,9.418710470E-1,-2.233982086E-2,-7.594692707E-1
4.699381781E1,8.077154160E-1,2.102041245E-1,-5.007411838E-1
4.700181348E1,7.295854092E-1,4.817771912E-1,-1.501309276E-1
4.700980931E1,6.479375362E-1,7.442083359E-1,3.079548478E-1
4.701780507E1,5.039361715E-1,1.013957024E0,8.299112320E-1
4.702580074E1,4.270687103E-1,1.326540947E0,1.372404814E0
4.703379718E1,6.203839183E-1,1.475580215E0,1.628324270E0
4.704182240E1,7.301610708E-1,1.688308716E0,1.573247790E0
4.704981792E1,8.161088228E-1,1.964385033E0,1.243784785E0
4.705781298E1,8.030015230E-1,2.227452278E0,7.872849703E-1
4.706580934E1,5.785923004E-1,2.556860924E0,1.795768738E-1
4.707380548E1,4.151526392E-1,2.756583214E0,-3.471335173E-1
4.708179993E1,5.596302748E-1,2.941938400E0,-1.019070625E0
4.708979660E1,9.206894636E-1,3.115834236E0,-1.674825311E0
4.709782258E1,1.128149509E0,3.262053490E0,-2.181577682E0
4.710581856E1,1.448235512E0,3.376358032E0,-2.641710997E0
4.711381439E1,1.601845980E0,3.351823807E0,-2.814846516E0
4.712180976E1,1.763434887E0,3.188506126E0,-2.552060604E0
4.712980490E1,2.040699720E0,2.822281837E0,-1.768112659E0
4.713780126E1,2.117818594E0,2.480324745E0,-9.906272888E-1
4.714579671E1,2.152627468E0,2.011481285E0,-5.345106125E-2
4.715382238E1,2.015346289E0,1.611497879E0,7.770323753E-1
4.716181836E1,1.683140159E0,1.291346550E0,1.207665920E0
4.716981358E1,9.734424353E-1,1.049888611E0,1.471615791E0
4.717781018E1,2.898215055E-1,9.127140045E-1,1.427631617E0
4.718580500E1,-2.992686629E-1,6.755590439E-1,1.273994565E0
4.719380137E1,-6.739774942E-1,3.712472916E-1,1.163492560E0
4.720182728E1,-7.836339474E-1,9.552001953E-2,1.095087171E0
4.720982303E1,-7.505441904E-1,-2.457923889E-1,9.392383099E-1
4.721781909E1,-6.719794273E-1,-5.734539032E-1,6.100028753E-1
4.722581484E1,-5.099188089E-1,-8.009500504E-1,1.044453382E-1
4.723380998E1,-3.499971032E-1,-8.338403702E-1,-6.151245832E-1
4.724180542E1,-2.420633435E-1,-8.548927307E-1,-1.043722391E0
4.724980117E1,7.068848610E-2,-1.016498566E0,-1.204951644E0
4.725779669E1,4.038093984E-1,-1.272886276E0,-1.005658269E0
4.726582314E1,7.429106832E-1,-1.585829735E0,-6.260106564E-1
4.727381858E1,9.703848362E-1,-1.845406532E0,-2.624112368E-1
4.728181379E1,1.161536932E0,-2.099968433E0,-1.464076042E-1
4.728981047E1,1.258450747E0,-2.450278759E0,-2.545558214E-1
4.729780560E1,1.142306566E0,-2.644977093E0,-5.003460646E-1
4.730580159E1,1.025963306E0,-2.753321648E0,-7.701730728E-1
4.731382788E1,7.988797426E-1,-2.724671364E0,-9.395306706E-1
4.732182363E1,5.603013635E-1,-2.719443321E0,-1.032914519E0
4.732981938E1,2.515844107E-1,-2.728204727E0,-1.193629861E0
4.733781482E1,-1.151201129E-1,-2.667357922E0,-1.268261194E0
4.734580996E1,-5.185500979E-1,-2.527562618E0,-1.206378937E0
4.735380533E1,-8.760401011E-1,-2.388192177E0,-1.091349125E0
4.736180146E1,-1.110268354E0,-2.235335350E0,-9.357389212E-1
4.736982760E1,-1.138888597E0,-2.021473408E0,-8.745646477E-1
4.737782335E1,-1.012041330E0,-1.804165363E0,-8.639363050E-1
4.738581910E1,-7.312342525E-1,-1.516250610E0,-9.350128770E-1
4.739381524E1,-3.395447135E-1,-1.236365318E0,-1.100535512E0
4.740181007E1,-7.818162441E-2,-1.016598701E0,-1.257072687E0
4.740980582E1,1.270807981E-1,-7.129001617E-1,-1.393990636E0
4.741780188E1,2.856538892E-1,-4.446172714E-1,-1.505482912E0
4.742582778E1,3.002918661E-1,-2.233314514E-2,-1.643403172E0
4.743382377E1,1.974603534E-1,3.937845230E-1,-1.641897440E0
4.744181982E1,1.558087766E-1,7.340993881E-1,-1.543369770E0
4.744981496E1,1.272821426E-2,1.113079071E0,-1.464610219E0
4.745781010E1,-1.963352561E-1,1.489860535E0,-1.304234385E0
4.746580585E1,-4.449854493E-1,1.854636192E0,-1.157461405E0
4.747380222E1,-6.007480025E-1,2.205357552E0,-8.668465614E-1
4.748182789E1,-5.609305501E-1,2.393686295E0,-6.702443957E-1
4.748982364E1,-4.939693213E-1,2.510313034E0,-5.890408754E-1
4.749782062E1,-4.987978935E-1,2.607597351E0,-6.515641809E-1
4.750581484E1,-5.079146624E-1,2.608857155E0,-9.624427557E-1
4.751381051E1,-8.074297309E-1,2.715205193E0,-1.518672705E0
4.752180596E1,-1.213349104E0,2.900710106E0,-1.938646317E0
4.752980202E1,-1.679045320E0,3.189509392E0,-2.225423336E0
4.753782823E1,-2.038338423E0,3.478687286E0,-2.469723701E0
4.754582437E1,-2.318185806E0,3.880926132E0,-2.517418861E0
4.755381981E1,-2.353897572E0,4.322446823E0,-2.317695856E0
4.756181518E1,-2.138271809E0,4.422924995E0,-1.960910797E0
4.756981070E1,-1.346616507E0,3.952685356E0,-1.302810550E0
4.757780637E1,-5.224014521E-1,3.256474495E0,-4.956973791E-1
4.758580243E1,9.723374248E-2,2.489592552E0,7.948970795E-2
4.759382895E1,6.135365367E-1,1.699529648E0,8.980553150E-1
4.760182478E1,8.415582180E-1,1.058108330E0,1.362618685E0
4.760981992E1,9.403709173E-1,4.545803070E-1,1.825987220E0
4.761781559E1,7.354650497E-1,9.418201447E-2,2.130817413E0
4.762581080E1,4.712684155E-1,-9.285163879E-2,2.213083982E0
4.763380686E1,4.301014543E-2,-1.043119431E-1,2.087285519E0
4.764180254E1,-2.882878184E-1,-1.771402359E-1,1.706661820E0
4.764982845E1,-5.720879436E-1,-3.254632950E-1,1.215489864E0
4.765782397E1,-7.192630768E-1,-4.986810684E-1,8.749340773E-1
4.766581972E1,-7.102867365E-1,-6.483974457E-1,6.416928768E-1
4.767381570E1,-6.734160185E-1,-9.013509750E-1,3.858809471E-1
4.768181122E1,-6.482237577E-1,-1.104243279E0,1.385376453E-1
4.768980697E1,-6.272964478E-1,-1.338308334E0,-1.298983097E-1
4.769780234E1,-5.174652338E-1,-1.514732361E0,-3.561123610E-1
4.770582894E1,-3.578382730E-1,-1.650334358E0,-4.441839457E-1
4.771382469E1,-1.741616428E-1,-1.800099373E0,-4.614824057E-1
4.772181944E1,2.255553007E-2,-1.909019947E0,-4.697505236E-1
4.772981550E1,1.422124505E-1,-2.039364338E0,-5.093371868E-1
4.773781102E1,1.809098274E-1,-2.126477242E0,-5.011316538E-1
4.774580677E1,2.251872122E-1,-2.177560329E0,-5.406651497E-1
4.775380314E1,2.611410022E-1,-2.190171242E0,-5.802128315E-1
4.776182874E1,2.602699399E-1,-2.181006432E0,-6.104191542E-1
4.776982410E1,3.631181419E-1,-2.114145279E0,-5.715653896E-1
4.777782078E1,3.915318847E-1,-2.047048092E0,-5.757055283E-1
4.778581691E1,3.406694531E-1,-2.010711670E0,-5.875070095E-1
4.779381113E1,2.077722549E-1,-1.938102722E0,-5.924824476E-1
4.780180773E1,1.832538843E-1,-1.948804379E0,-5.508207083E-1
4.780980255E1,3.145325184E-2,-1.954331398E0,-4.405775070E-1
4.781782938E1,-1.122480631E-1,-1.962222099E0,-2.815601826E-1
4.782582460E1,-2.736655474E-1,-1.884287834E0,-1.319874525E-1
4.783382035E1,-4.022037387E-1,-1.792654037E0,-8.200895786E-2
4.784181602E1,-5.137924552E-1,-1.666237354E0,-1.345078945E-1
4.784981177E1,-5.459456444E-1,-1.471402168E0,-3.021124601E-1
4.785780753E1,-5.262011290E-1,-1.121753693E0,-5.794711113E-1
4.786580212E1,-4.135344625E-1,-7.914705276E-1,-7.690437436E-1
4.787382980E1,-2.170505524E-1,-3.772096634E-1,-7.127606869E-1
4.788182501E1,9.789156914E-2,-6.546115875E-2,-5.291507244E-1
4.788982130E1,3.566980362E-1,1.222467422E-1,-4.230705500E-1
4.789781644E1,4.919476509E-1,3.152351379E-1,-3.602191210E-1
4.790581227E1,4.800884724E-1,4.896516800E-1,-3.338414431E-1
4.791380763E1,3.755033612E-1,7.748737335E-1,-2.131850719E-1
4.792180285E1,3.064392805E-1,1.070364952E0,3.935527802E-2
4.792982998E1,2.482386231E-1,1.354337692E0,2.597680092E-1
4.793782512E1,2.776570320E-1,1.698515892E0,4.224416018E-1
4.794582026E1,2.108736038E-1,1.964017868E0,6.235966682E-1
4.795381654E1,8.579730988E-2,2.205634117E0,8.001222610E-1
4.796181237E1,3.620189428E-2,2.446798325E0,8.711795807E-1
4.796980743E1,5.047637224E-2,2.584246635E0,7.167278528E-1
4.797780295E1,8.864492178E-2,2.766533852E0,2.453974485E-1
4.798582940E1,1.516053677E-1,2.869637489E0,-3.273714781E-1
4.799382553E1,3.119618297E-1,3.047527313E0,-9.841461182E-1
4.800182129E1,5.773341656E-1,3.255830765E0,-1.701420546E0
4.800981642E1,7.870708704E-1,3.514837265E0,-2.084783792E0
4.801781271E1,9.089589119E-1,3.775206566E0,-2.133411407E0
4.802580754E1,7.935294509E-1,3.838748932E0,-1.845560670E0
4.803380391E1,6.673790216E-1,3.559350014E0,-1.075332642E0
4.804183020E1,5.348215103E-1,3.096554756E0,1.508128643E-2
4.804982626E1,5.172477961E-1,2.609056473E0,8.332352638E-1
4.805782078E1,4.454247952E-1,2.025908470E0,1.668212652E0
4.806581738E1,3.267173171E-1,1.589698792E0,2.092251301E0
4.807381159E1,9.933745861E-2,1.265548706E0,2.463408947E0
4.808180796E1,-1.645976305E-1,1.087648392E0,2.641563892E0
4.808980378E1,-3.287886381E-1,8.666067123E-1,2.605837345E0
4.809782961E1,-4.277809858E-1,5.590906143E-1,2.298284531E0
4.810582606E1,-4.936690331E-1,2.466220856E-1,1.861125231E0
4.811382089E1,-3.663905859E-1,-3.114891052E-2,1.356923819E0
4.812181687E1,-6.860232353E-2,-4.126653671E-1,6.556396484E-1
4.812981201E1,1.640093327E-1,-5.805330276E-1,1.753344536E-1
4.813780845E1,3.477925658E-1,-7.826204300E-1,-3.915607929E-1
4.814580412E1,4.985064268E-1,-9.844417572E-1,-8.353180885E-1
4.815383041E1,6.120976210E-1,-1.108986855E0,-9.825679064E-1
4.816182670E1,7.319582701E-1,-1.292528152E0,-1.047220230E0
4.816982161E1,8.447603583E-1,-1.532952309E0,-9.628711939E-1
4.817781767E1,1.016247869E0,-1.837675095E0,-7.375380993E-1
4.818581281E1,1.109424233E0,-2.118463039E0,-5.027712584E-1
4.819380856E1,1.203074455E0,-2.363699913E0,-5.562561750E-1
4.820180392E1,1.179866552E0,-2.599683762E0,-8.167945147E-1
4.820983052E1,9.834036231E-1,-2.749447346E0,-1.121496916E0
4.821782566E1,6.725270748E-1,-2.798211098E0,-1.432155848E0
4.822582172E1,3.427135944E-1,-2.769525051E0,-1.717467904E0
4.823381624E1,2.230507135E-2,-2.663392067E0,-1.808920503E0
4.824181230E1,-2.740773559E-1,-2.384160995E0,-1.654509664E0
4.824980889E1,-5.438789725E-1,-2.171573162E0,-1.476500511E0
4.825780403E1,-8.052406907E-1,-1.932617188E0,-1.213896513E0
4.826583086E1,-9.712894559E-1,-1.713350296E0,-1.017689943E0
4.827382638E1,-1.028010964E0,-1.597876549E0,-9.172451496E-1
4.828182090E1,-9.990801215E-1,-1.416211128E0,-8.427034616E-1
4.828981727E1,-7.718799710E-1,-1.278390884E0,-7.295697927E-1
4.829781240E1,-3.849195838E-1,-1.016480446E0,-6.381728053E-1
4.830580846E1,-5.971151590E-2,-8.049879074E-1,-7.523474693E-1
4.831380414E1,8.423972130E-2,-5.979681015E-1,-8.292758465E-1
4.832183012E1,1.340214610E-1,-2.777624130E-1,-8.996224403E-1
4.832982618E1,1.472747922E-1,-5.014228821E-2,-8.806418180E-1
4.833782162E1,3.086990118E-2,1.997165680E-1,-8.460130692E-1
4.834581738E1,-2.252813578E-1,5.003089905E-1,-7.992886305E-1
4.835381282E1,-3.387171626E-1,7.748355865E-1,-6.471195221E-1
4.836180888E1,-4.495019317E-1,1.140588760E0,-4.667115211E-1
4.836983478E1,-4.889231920E-1,1.334101677E0,-3.390840888E-1
4.837783169E1,-4.351199269E-1,1.520524025E0,-1.127805710E-1
4.838582713E1,-2.761908174E-1,1.754914284E0,2.793482542E-1
4.839382258E1,-1.273989081E-1,1.874249458E0,5.103530884E-1
4.840181841E1,-7.163071632E-2,1.923831940E0,4.581009150E-1
4.840981354E1,-6.854850054E-2,1.980335236E0,1.471201181E-1
4.841780837E1,-3.075205684E-1,2.132737160E0,-4.968827963E-1
4.842580435E1,-5.639839172E-1,2.314466476E0,-1.387210131E0
4.843383064E1,-8.446585536E-1,2.569063187E0,-2.044868708E0
4.844182724E1,-1.143991709E0,2.911049843E0,-2.614208221E0
4.844982184E1,-1.366790056E0,3.307033539E0,-2.655448437E0
4.845781782E1,-1.688008904E0,3.622699738E0,-2.283120394E0
4.846581357E1,-1.593184352E0,3.630576134E0,-1.743658066E0
4.847380940E1,-1.216836095E0,3.253964424E0,-1.096022964E0
4.848183592E1,-9.035887122E-1,2.650586128E0,-4.353583157E-1
4.848983160E1,-7.123911977E-1,1.997089386E0,1.972662210E-1
4.849782650E1,-7.159935832E-1,1.568413734E0,6.321200728E-1
4.850582225E1,-8.539330959E-1,1.222852707E0,9.308254719E-1
4.851381770E1,-1.063326836E0,9.865274429E-1,8.256471753E-1
4.852181368E1,-1.276741505E0,9.120273590E-1,6.644464731E-1
4.852980859E1,-1.146232605E0,8.868141174E-1,4.331189990E-1
4.853783565E1,-8.578656316E-1,7.533149719E-1,9.593409300E-2
4.854583147E1,-4.853619337E-1,5.573863983E-1,-2.503717542E-1
4.855382715E1,-1.742973328E-1,2.922582626E-1,-6.155068278E-1
4.856182298E1,1.372953057E-1,-1.112279892E-1,-9.725087881E-1
4.856981773E1,3.057892919E-1,-5.210504532E-1,-1.221113563E0
4.857781440E1,3.413052559E-1,-8.198490143E-1,-1.311151624E0
4.858580954E1,1.980959773E-1,-1.115363121E0,-1.190253735E0
4.859383575E1,8.770960569E-2,-1.402957916E0,-1.041882277E0
4.860183150E1,-7.615351677E-2,-1.745123863E0,-6.832745671E-1
4.860982695E1,-1.006864905E-1,-2.070315838E0,-1.171095669E-1
4.861782301E1,1.751565933E-2,-2.259193420E0,3.998363018E-1
4.862581822E1,3.002833724E-1,-2.537042141E0,8.356313109E-1
4.863381420E1,5.047867298E-1,-2.757985592E0,9.142103791E-1
4.864180996E1,6.661569476E-1,-2.993847847E0,7.043757439E-1
4.864983655E1,8.281675577E-1,-3.172724724E0,2.822434306E-1
4.865783130E1,8.810632229E-1,-3.253621101E0,-2.003144920E-1
4.866582744E1,9.597054720E-1,-3.329612732E0,-6.458703876E-1
4.867382342E1,8.836123943E-1,-3.352486610E0,-1.054554105E0
4.868181894E1,6.429347992E-1,-3.281412601E0,-1.361463070E0
4.868981377E1,3.939307928E-1,-3.176271439E0,-1.496957660E0
4.869780976E1,1.348144412E-1,-3.058790684E0,-1.360427380E0
4.870583566E1,-6.906449795E-2,-2.960373402E0,-1.041254401E0
4.871383149E1,-2.119519711E-1,-2.833502293E0,-6.441840529E-1
4.872182816E1,-2.752074003E-1,-2.745503902E0,-2.930939198E-1
4.872982299E1,-2.447358370E-1,-2.541040897E0,-2.026987076E-1
4.873781898E1,-2.341198921E-2,-2.315762043E0,-3.704062700E-1
4.874581442E1,1.679876447E-1,-1.956714630E0,-7.106074095E-1
4.875381025E1,3.453853130E-1,-1.671694756E0,-9.330635667E-1
4.876183608E1,4.279152751E-1,-1.367120743E0,-8.840197921E-1
4.876983221E1,4.257640243E-1,-9.973793030E-1,-6.215560436E-1
4.877782789E1,4.073309302E-1,-6.967630386E-1,-2.997580171E-1
4.878582302E1,3.528784513E-1,-4.439039230E-1,-3.443014622E-2
4.879381939E1,5.104486346E-1,-2.390680313E-1,2.602666020E-1
4.880181422E1,5.641330481E-1,1.099395752E-2,3.033645153E-1
4.880981089E1,6.079262495E-1,2.583761215E-1,2.251216173E-1
4.881783688E1,5.366044641E-1,6.061449051E-1,2.085440159E-1
4.882583224E1,4.163756967E-1,1.049571991E0,1.537649035E-1
4.883382738E1,4.972193837E-1,1.384358406E0,5.480420589E-2
4.884182413E1,4.315024614E-1,1.702102661E0,-5.865973234E-2
4.884981950E1,4.076046944E-1,2.025119781E0,-8.253455162E-3
4.885781494E1,3.248936534E-1,2.296669960E0,3.851062059E-2
4.886581069E1,1.762322187E-1,2.531083107E0,1.421657205E-1
4.887383668E1,-1.098874807E-1,2.787898064E0,2.681623101E-1
4.888183243E1,-3.049464226E-1,3.018216133E0,3.892845511E-1
4.888982841E1,-3.610597849E-1,3.211989403E0,4.405746460E-1
4.889782324E1,-3.463602066E-1,3.395372391E0,3.531522751E-1
4.890581899E1,-2.852356434E-1,3.573266029E0,4.649281502E-2
4.891381482E1,-5.826801062E-2,3.714901924E0,-2.240682840E-1
4.892181057E1,2.836925983E-1,3.706031799E0,-4.910802841E-1
4.892983648E1,9.193241596E-1,3.583316803E0,-4.791712165E-1
4.893783284E1,1.390994310E0,3.438202858E0,-2.812690139E-1
4.894582829E1,1.666060090E0,3.182382584E0,2.687335014E-2
4.895382427E1,1.691111565E0,2.844702721E0,5.514601469E-1
4.896181910E1,1.682968855E0,2.523069382E0,9.830700159E-1
4.896981523E1,1.539827824E0,2.197894096E0,1.628497720E0
4.897781068E1,1.380939484E0,1.935386658E0,2.132567406E0
4.898583751E1,1.159584880E0,1.595815659E0,2.526057243E0
4.899383357E1,7.496567965E-1,1.350501060E0,2.761062145E0
4.900182778E1,4.228108525E-1,1.167575836E0,2.838926315E0
4.900982476E1,1.756118536E-1,9.220428467E-1,2.788529396E0
4.901782013E1,1.185467243E-1,6.542797089E-1,2.610109568E0
4.902581503E1,1.779743433E-1,3.189125061E-1,2.109358311E0
4.903381071E1,2.707988620E-1,-2.873802185E-2,1.292725682E0
4.904183731E1,3.755642772E-1,-2.534513474E-1,4.953824282E-1
4.904983306E1,7.414145470E-1,-5.313463211E-1,-4.212310314E-1
4.905782935E1,1.065582752E0,-7.652797699E-1,-1.195318580E0
4.906582448E1,1.308451176E0,-8.923816681E-1,-1.741935492E0
4.907381962E1,1.486727953E0,-1.034193993E0,-1.987295032E0
4.908181606E1,1.598624945E0,-1.109672546E0,-1.799896002E0
4.908981174E1,1.557652950E0,-1.217245102E0,-1.634541273E0
4.909783672E1,1.323318481E0,-1.335472107E0,-1.458250523E0
4.910583340E1,9.169886708E-1,-1.479167938E0,-1.389053226E0
4.911382853E1,5.905484557E-1,-1.657972813E0,-1.333930969E0
4.912182436E1,3.951709867E-1,-1.805098534E0,-1.349313855E0
4.912981973E1,2.771006227E-1,-1.901540756E0,-1.391588807E0
4.913781610E1,1.821936369E-1,-2.012309074E0,-1.485464811E0
4.914581162E1,1.053103805E-1,-2.089449406E0,-1.578845143E0
4.915383844E1,-9.466648102E-2,-2.097022057E0,-1.631048679E0
4.916183320E1,-3.160698414E-1,-2.032662868E0,-1.654515505E0
4.916982833E1,-5.676672459E-1,-1.954017162E0,-1.510210514E0
4.917782385E1,-6.760265231E-1,-1.839830875E0,-1.331339240E0
4.918582014E1,-8.355185390E-1,-1.690389633E0,-1.190890312E0
4.919381597E1,-1.050683618E0,-1.444035530E0,-1.000673532E0
4.920181134E1,-1.042506576E0,-1.225400925E0,-8.589257598E-1
4.920983755E1,-9.937477112E-1,-9.963054657E-1,-6.793038845E-1
4.921783361E1,-9.233951569E-1,-8.599586487E-1,-6.301456690E-1
4.922582913E1,-8.638722897E-1,-7.323827744E-1,-6.518161297E-1
4.923382481E1,-7.282102704E-1,-5.940971375E-1,-7.358721495E-1
4.924182087E1,-5.743374825E-1,-4.447183609E-1,-8.137000203E-1
4.924981723E1,-4.368681312E-1,-2.144937515E-1,-9.005611539E-1
4.925781145E1,-2.624855042E-1,7.287120819E-2,-1.084482193E0
4.926583774E1,-2.096214294E-1,3.579063416E-1,-1.249274731E0
4.927383318E1,-3.205844164E-1,7.438259125E-1,-1.427314878E0
4.928182955E1,-4.415448308E-1,1.154314041E0,-1.440730095E0
4.928982438E1,-6.062989831E-1,1.575164795E0,-1.255058527E0
4.929782036E1,-8.542074561E-1,1.975501060E0,-8.920645714E-1
4.930581588E1,-1.038524628E0,2.103588104E0,-6.834568381E-1
4.931381163E1,-1.179752111E0,2.289327621E0,-3.297469616E-1
4.932183777E1,-1.133778691E0,2.354857445E0,-1.957651377E-1
4.932983383E1,-1.114690542E0,2.424242973E0,-3.848229647E-1
4.933782966E1,-1.133821726E0,2.578856468E0,-9.841471910E-1
4.934582502E1,-1.261287928E0,2.812251091E0,-1.704939365E0
4.935382077E1,-1.421288252E0,3.165824890E0,-2.333132029E0
4.936181660E1,-1.444478035E0,3.424676895E0,-2.709510326E0
4.936984282E1,-1.416169643E0,3.708793640E0,-3.042639256E0
4.937783764E1,-1.316709518E0,3.764979362E0,-2.962296009E0
4.938583393E1,-9.684328437E-1,3.514310837E0,-2.528952599E0
4.939382876E1,-4.393405914E-1,2.983096123E0,-1.709547758E0
4.940182575E1,-2.130055428E-2,2.262176514E0,-1.029058933E0
4.940982088E1,2.452753186E-1,1.741173744E0,-2.870423198E-1
4.941781732E1,3.350477815E-1,1.261644363E0,3.414613008E-1
4.942584315E1,3.403581977E-1,8.949327469E-1,6.010106802E-1
4.943383775E1,1.577760577E-1,5.234403610E-1,6.943295002E-1
4.944183473E1,-1.528297067E-1,2.618112564E-1,6.935678720E-1
4.944982956E1,-3.857920766E-1,7.645606995E-2,6.979683638E-1
4.945782562E1,-5.935838223E-1,-1.741132736E-1,7.003986835E-1
4.946582076E1,-6.931592226E-1,-4.757518768E-1,6.274259090E-1
4.947381643E1,-6.369500160E-1,-8.406229019E-1,6.450550556E-1
4.948184295E1,-4.413644075E-1,-1.084416389E0,9.115461111E-1
4.948983878E1,-2.456018329E-1,-1.252472878E0,9.935293198E-1
4.949783446E1,-4.066962004E-2,-1.558199883E0,7.788947821E-1
4.950582998E1,-2.714681625E-2,-1.630151749E0,5.409821272E-1
4.951382596E1,1.654767990E-2,-1.666782856E0,2.488526106E-1
4.952182110E1,8.449763060E-2,-1.662758350E0,4.101526737E-2
4.952981693E1,9.385913610E-2,-1.665580750E0,1.132917404E-2
4.953784306E1,1.188032031E-1,-1.687131405E0,-5.389821529E-2
4.954583820E1,1.930742860E-1,-1.746465683E0,1.724219322E-2
4.955383433E1,2.336180806E-1,-1.870082855E0,6.087327003E-2
4.956183062E1,2.651451230E-1,-1.991044521E0,8.758306503E-2
4.956982545E1,2.970633805E-1,-2.056759834E0,1.576367617E-1
4.957782190E1,3.897132874E-1,-2.134372234E0,1.569902897E-1
4.958581672E1,4.312444627E-1,-2.240717888E0,8.408415318E-2
4.959384378E1,3.981397152E-1,-2.323031902E0,-8.714675903E-3
4.960183838E1,3.327775896E-1,-2.407628536E0,-4.994678497E-2
4.960983437E1,2.173911333E-1,-2.415632725E0,-5.356431007E-2
4.961783012E1,1.508020163E-1,-2.311258316E0,9.769988060E-2
4.962582525E1,1.201869249E-1,-2.219248772E0,8.890521526E-2
4.963382139E1,5.356067419E-2,-2.118088722E0,-2.475857735E-2
4.964181768E1,1.518827677E-2,-1.969494343E0,-2.744388580E-1
4.964984274E1,3.599417210E-2,-1.835427761E0,-5.303286314E-1
4.965783903E1,-3.232657909E-3,-1.595843315E0,-7.702642083E-1
4.966583540E1,-9.621626139E-2,-1.437299728E0,-9.170283079E-1
4.967382999E1,-1.264364719E-1,-1.199382782E0,-9.401170015E-1
4.968182544E1,-9.705096483E-2,-1.006578445E0,-7.875322104E-1
4.968982173E1,-1.350408792E-1,-7.992725372E-1,-5.129665136E-1
4.969781725E1,-1.477450132E-1,-5.922164917E-1,-1.624176502E-1
4.970584431E1,-7.471954823E-2,-4.074411392E-1,1.701257229E-1
4.971383914E1,9.991830587E-2,-2.546749115E-1,3.261661530E-1
4.972183496E1,3.027300835E-1,-2.413749695E-3,2.810639143E-1
4.972983102E1,4.012079239E-1,3.163414001E-1,1.595406532E-1
4.973782647E1,5.347951651E-1,7.451810837E-1,-8.663666248E-2
4.974582160E1,5.879244208E-1,1.119487762E0,-2.182190418E-1
4.975381697E1,6.134154797E-1,1.489710808E0,-2.123275995E-1
4.976184411E1,4.921641350E-1,1.882455826E0,-9.188449383E-2
4.976983986E1,3.300390840E-1,2.094241142E0,6.908762455E-2
4.977783561E1,8.992308378E-2,2.273324966E0,3.404769897E-1
4.978583136E1,-5.751764774E-2,2.407280922E0,7.528296709E-1
4.979382681E1,-1.450742483E-1,2.524107933E0,1.039188027E0
4.980182202E1,-2.076828480E-1,2.635038376E0,1.229570389E0
4.980981808E1,-1.835997701E-1,2.727661133E0,1.168326020E0
4.981784398E1,-1.901507974E-1,2.890622139E0,7.976766825E-1
4.982583912E1,-6.636142731E-3,3.090811729E0,1.226770878E-1
4.983383549E1,2.329890728E-1,3.358035088E0,-4.953963757E-1
4.984183055E1,4.910513163E-1,3.667123795E0,-1.141104221E0
4.984982638E1,7.919266820E-1,3.868211746E0,-1.457479000E0
4.985782205E1,1.092277527E0,3.892684937E0,-1.515367746E0
4.986581780E1,1.339640856E0,3.667007446E0,-1.192397833E0
4.987384432E1,1.450774431E0,3.284173965E0,-6.547720432E-1
4.988184038E1,1.353914022E0,2.834703445E0,-3.723812103E-2
4.988983613E1,1.237487435E0,2.468489647E0,3.837269545E-1
4.989783096E1,7.876480818E-1,2.079567909E0,7.304588556E-1
4.990582679E1,2.562680840E-1,1.772524834E0,9.856576920E-1
4.991382247E1,-1.787405014E-1,1.574827194E0,1.111197114E0
4.992181829E1,-5.387665033E-1,1.258035660E0,1.173251152E0
4.992984443E1,-7.463380098E-1,9.529008865E-1,1.192290783E0
4.993783957E1,-7.703268528E-1,5.342073441E-1,1.303596020E0
4.994583509E1,-5.295709372E-1,8.988761902E-2,1.477137327E0
4.995383076E1,-1.329134703E-1,-2.768898010E-1,1.539163113E0
4.996182682E1,4.668217301E-1,-6.904697418E-1,1.481805801E0
4.996982234E1,8.707951307E-1,-8.820018768E-1,1.271694660E0
4.997781840E1,1.288306594E0,-1.089917183E0,9.757790565E-1
4.998584492E1,1.561424136E0,-1.274898529E0,4.830627441E-1
4.999384029E1,1.658957243E0,-1.495929718E0,-2.025365829E-2
5.000183550E1,1.564767599E0,-1.651972771E0,-4.644798040E-1
5.000983149E1,1.371973276E0,-1.687818050E0,-8.113257885E-1
5.001782701E1,1.087688923E0,-1.705960751E0,-1.151927710E0
5.002582237E1,7.836753726E-1,-1.780405521E0,-1.466145277E0
5.003381851E1,6.192889810E-1,-1.848920345E0,-1.697160602E0
5.004184495E1,5.555420518E-1,-1.954634190E0,-1.936311245E0
5.004984101E1,4.412022233E-1,-2.085548878E0,-1.978178740E0
5.005783553E1,3.541180491E-1,-2.155785084E0,-1.998912930E0
5.006583190E1,2.685839832E-1,-2.285276413E0,-1.982740998E0
5.007382765E1,9.011340141E-2,-2.440734863E0,-1.916923761E0
5.008182340E1,-1.895817518E-1,-2.574442863E0,-1.896808028E0
5.008981769E1,-3.501040339E-1,-2.614857674E0,-1.770921826E0
5.009784445E1,-3.855676651E-1,-2.638839245E0,-1.682162285E0
5.010584143E1,-4.907035828E-1,-2.620369911E0,-1.590758204E0
5.011383603E1,-5.929957032E-1,-2.516603470E0,-1.479258895E0
5.012183178E1,-6.818104386E-1,-2.308621883E0,-1.389879704E0
5.012982776E1,-8.177183867E-1,-2.027528763E0,-1.356317639E0
5.013782328E1,-8.259823322E-1,-1.780835152E0,-1.338886619E0
5.014581896E1,-6.682486534E-1,-1.549415588E0,-1.360910177E0
5.015384455E1,-4.304844141E-1,-1.330517769E0,-1.427658439E0
5.016184030E1,-1.697527766E-1,-1.006364822E0,-1.564347267E0
5.016983667E1,7.779419422E-2,-6.770334244E-1,-1.799386382E0
5.017783219E1,2.665677369E-1,-3.660326004E-1,-2.063073635E0
5.018582764E1,3.430711031E-1,-2.264213562E-2,-2.334338427E0
5.019382393E1,3.115380108E-1,3.629589081E-1,-2.407603741E0
5.020181937E1,4.254169166E-1,6.399440765E-1,-2.238229036E0
5.020984497E1,6.237738729E-1,9.588451385E-1,-1.759241462E0
5.021784103E1,7.827417850E-1,1.283447266E0,-1.212517023E0
5.022583655E1,9.127219915E-1,1.522505760E0,-6.819213629E-1
5.023383199E1,8.470790386E-1,1.699902534E0,-2.694061995E-1
5.024182744E1,6.921966672E-1,1.923859596E0,5.350112915E-3
5.024982373E1,5.460879803E-1,2.057635307E0,1.712100506E-1
5.025781917E1,2.663330436E-1,2.213473320E0,1.920902729E-1
5.026584485E1,-2.823995948E-1,2.386388779E0,3.360366821E-2
5.027384121E1,-7.709646821E-1,2.600045204E0,-2.389882803E-1
5.028183666E1,-1.277141452E0,2.787188530E0,-6.619365811E-1
5.028983179E1,-1.926388860E0,3.096351624E0,-1.171379566E0
5.029782839E1,-2.416731834E0,3.362516403E0,-1.399066567E0
5.030582353E1,-2.739009619E0,3.595299721E0,-1.372253418E0
5.031385012E1,-2.671138287E0,3.581626892E0,-9.268541932E-1
5.032184618E1,-2.236427784E0,3.326080322E0,-3.026514053E-1
5.032984101E1,-1.607946277E0,2.792275429E0,2.947766781E-1
5.033783669E1,-1.111866713E0,2.300755501E0,6.505582333E-1
5.034583221E1,-6.640379429E-1,1.786870003E0,8.576573133E-1
5.035382827E1,-4.945978522E-1,1.420586586E0,9.510451555E-1
5.036182425E1,-4.471521378E-1,9.961566925E-1,9.778994322E-1
5.036985023E1,-5.264374614E-1,6.619510651E-1,9.266904593E-1
5.037784598E1,-6.370435357E-1,4.085121155E-1,8.202619553E-1
5.038584227E1,-7.698727846E-1,9.701538086E-2,6.341530085E-1
5.039383710E1,-7.699087262E-1,-1.983785629E-1,4.666905403E-1
5.040183232E1,-7.164826393E-1,-3.818273544E-1,4.010941982E-1
5.040982799E1,-6.070182323E-1,-5.538511276E-1,2.650520802E-1
5.041782374E1,-4.556469917E-1,-6.494607925E-1,1.151852608E-1
5.042584942E1,-2.463572621E-1,-8.072376251E-1,-2.890484333E-1
5.043384571E1,-2.691168189E-1,-9.477205276E-1,-6.842886806E-1
5.044184146E1,-2.141641378E-1,-1.195260048E0,-9.219384193E-1
5.044980988E1,-1.421061754E-1,-1.556890488E0,-9.440479279E-1
5.045780678E1,-7.151401043E-2,-1.855720043E0,-7.927303314E-1
5.046580221E1,-6.943053007E-2,-2.194842815E0,-5.627093315E-1
5.047379703E1,-4.294586182E-2,-2.545876980E0,-3.758843541E-1
5.048182393E1,4.172408581E-2,-2.779703617E0,-3.815566301E-1
5.048981967E1,1.115564704E-1,-3.013706207E0,-5.280880928E-1
5.049781534E1,4.704689980E-2,-3.149590969E0,-7.422077656E-1
5.050581047E1,-3.750646114E-2,-3.196839333E0,-1.010679245E0
5.051380690E1,-3.832936287E-3,-3.172058582E0,-1.093386769E0
5.052180141E1,-7.188808918E-2,-3.060695171E0,-1.133148193E0
5.052979716E1,-2.055819035E-1,-3.071043491E0,-1.043760300E0
5.053782367E1,-4.107261896E-1,-2.978137016E0,-8.538561463E-1
5.054581910E1,-4.682596922E-1,-2.906649590E0,-6.320902705E-1
5.055381485E1,-4.367858768E-1,-2.794571400E0,-4.057745934E-1
5.056181121E1,-3.305450082E-1,-2.625229836E0,-1.836345196E-1
5.056980626E1,-6.764894724E-2,-2.346055984E0,-1.031762958E-1
5.057780239E1,6.177151203E-2,-2.114871025E0,-2.630162239E-1
5.058579774E1,-5.242109299E-2,-1.763901234E0,-3.847814798E-1
5.059382364E1,-7.004559040E-2,-1.510909081E0,-3.489402533E-1
5.060182000E1,-1.322203875E-2,-1.276985168E0,-2.316524982E-1
5.060981544E1,-3.709656000E-2,-9.736137390E-1,3.517240286E-2
5.061781095E1,6.834012270E-2,-6.703777313E-1,3.783271313E-1
5.062580577E1,2.912612855E-1,-2.860431671E-1,6.727232933E-1
5.063380205E1,5.041407943E-1,4.760265350E-2,6.429957151E-1
5.064179787E1,4.768971205E-1,3.451519012E-1,3.818553090E-1
5.064982377E1,2.858403921E-1,6.930646896E-1,-2.504503727E-2
5.065782036E1,3.058570623E-2,9.815034866E-1,-3.635422587E-1
5.066581548E1,-2.302231193E-1,1.335134506E0,-5.429747105E-1
5.067381100E1,-3.568389416E-1,1.698864937E0,-5.018477440E-1
5.068180697E1,-3.447270393E-1,1.981613159E0,-2.367494702E-1
5.068980248E1,-2.338545322E-1,2.307918549E0,2.726981640E-1
5.069779846E1,-2.147846222E-1,2.552823067E0,5.413548946E-1
5.070582443E1,-1.551132798E-1,2.735251427E0,6.008218527E-1
5.071381979E1,-6.939399242E-2,2.946010590E0,4.958428144E-1
5.072181492E1,2.282470465E-2,3.086948395E0,3.602432013E-1
5.072981104E1,1.246777773E-1,3.318631172E0,1.858843565E-1
5.073780679E1,1.498326957E-1,3.612508774E0,9.330129623E-2
5.074580215E1,3.557840288E-1,3.772343636E0,-3.010118008E-2
5.075379889E1,6.443611383E-1,3.874852180E0,-2.752917409E-1
5.076182479E1,8.170344830E-1,3.898807526E0,-4.839875698E-1
5.076982022E1,1.066633105E0,3.808626175E0,-5.776491165E-1
5.077781597E1,1.384131551E0,3.583112717E0,-6.136533022E-1
5.078581163E1,1.463729262E0,3.353918076E0,-6.657739878E-1
5.079380714E1,1.352380633E0,3.032932281E0,-5.839507580E-1
5.080180320E1,1.212953091E0,2.727837563E0,-3.601608276E-1
5.080979802E1,9.732509851E-1,2.416898727E0,2.133493423E-1
5.081782414E1,8.393599987E-1,2.099622726E0,8.868430853E-1
5.082581996E1,6.272358298E-1,1.780075073E0,1.277420044E0
5.083381655E1,3.537362814E-1,1.467084885E0,1.453932166E0
5.084181176E1,7.648482919E-2,1.107606888E0,1.369599223E0
5.084980750E1,-1.856997013E-1,7.111024857E-1,1.148194551E0
5.085780324E1,-1.474878490E-1,2.390642166E-1,7.754839659E-1
5.086579829E1,-1.229667664E-1,-8.800125122E-2,4.177343845E-1
5.087382419E1,-5.167642236E-2,-4.109745026E-1,7.983410358E-2
5.088181994E1,1.516173929E-1,-7.030725479E-1,-5.381512642E-2
5.088981606E1,4.958843291E-1,-1.062271118E0,-9.871113300E-2
5.089781119E1,7.375419140E-1,-1.457427025E0,-9.015715122E-2
5.090580778E1,8.106570244E-1,-1.764047623E0,-3.989946842E-2
5.091380268E1,7.112367153E-1,-2.049386024E0,-5.914723873E-2
5.092179873E1,5.909587145E-1,-2.237020493E0,3.758823872E-2
5.092982486E1,4.791651964E-1,-2.375161171E0,1.511660814E-1
5.093782098E1,4.108928144E-1,-2.507505894E0,1.315782070E-1
5.094581603E1,3.139544427E-1,-2.626928806E0,-3.047239780E-2
5.095381116E1,2.089540213E-1,-2.750055790E0,-3.644568920E-1
5.096180752E1,2.327964455E-1,-2.850201130E0,-6.135405302E-1
5.096980365E1,3.365438282E-1,-2.941361904E0,-9.159365296E-1
5.097779901E1,5.131251812E-1,-3.001642227E0,-1.213353515E0
5.098582467E1,4.746734202E-1,-3.052222729E0,-1.474216819E0
5.099382065E1,3.481590748E-1,-3.068805218E0,-1.676829576E0
5.100181639E1,1.396256238E-1,-3.010486603E0,-1.679116249E0
5.100981129E1,-7.426203787E-2,-2.906171322E0,-1.554642439E0
5.101780703E1,-3.149331510E-1,-2.725121498E0,-1.411456108E0
5.102580247E1,-3.493433297E-1,-2.465187550E0,-1.284083009E0
5.103379875E1,-3.320441842E-1,-2.160066605E0,-1.152384281E0
5.104182503E1,-2.473264039E-1,-1.850678444E0,-1.081941247E0
5.104982046E1,-1.150828600E-1,-1.663800240E0,-1.132882357E0
5.105781621E1,-8.732303977E-2,-1.405358315E0,-1.238741040E0
5.106581188E1,-8.637407422E-2,-1.168415070E0,-1.308103204E0
5.107380770E1,4.262319207E-2,-8.521537781E-1,-1.342691183E0
5.108180344E1,5.242313445E-2,-5.186100006E-1,-1.396679997E0
5.108979880E1,5.478021502E-2,-2.084112167E-1,-1.339428902E0
5.109782377E1,1.091790497E-1,2.198352814E-1,-1.050350785E0
5.110582074E1,1.798315197E-1,5.623588562E-1,-8.147177100E-1
5.111381564E1,2.007750869E-1,9.194383621E-1,-7.425379753E-1
5.112181231E1,3.160615265E-1,1.262342453E0,-9.940811992E-1
5.112980736E1,4.516567290E-1,1.550484657E0,-9.621890783E-1
5.113780318E1,6.154817343E-1,1.937241554E0,-7.987866402E-1
5.114580015E1,7.232967615E-1,2.193032265E0,-7.115542889E-1
5.115382544E1,6.975036860E-1,2.561980247E0,-1.005370140E0
5.116182079E1,2.542632222E-1,3.013222694E0,-1.557188034E0
5.116981631E1,-2.204457223E-1,3.451157570E0,-1.890552521E0
5.117781259E1,-7.784006596E-1,3.974028587E0,-2.064829826E0
5.118580718E1,-1.267662048E0,4.466827393E0,-1.922690630E0
5.119380377E1,-1.794411182E0,4.938983917E0,-1.595968008E0
5.120179897E1,-1.962291718E0,5.074321747E0,-9.821189642E-1
5.120982518E1,-1.785063982E0,4.985163689E0,-3.086678982E-1
5.121782061E1,-1.193618536E0,4.410293579E0,4.446400404E-1
5.122581635E1,-5.915424824E-1,3.725393295E0,8.623492718E-1
5.123381179E1,-1.805805564E-1,2.975850105E0,1.188929200E0
5.124180869E1,-9.752488136E-2,2.276150703E0,1.351561904E0
5.124980412E1,-2.804986835E-1,1.779324532E0,1.391633153E0
5.125779925E1,-6.570012569E-1,1.398810387E0,1.317567825E0
5.126582553E1,-1.072042227E0,1.301929474E0,1.095809579E0
5.127382089E1,-1.366382718E0,1.335276604E0,9.577543736E-1
5.128181702E1,-1.397549748E0,1.354884148E0,9.060610533E-1
5.128981276E1,-1.238637328E0,1.252965927E0,8.433918953E-1
5.129780689E1,-1.050705194E0,1.108732224E0,5.755541325E-1
5.130580394E1,-9.117889404E-1,8.602609634E-1,1.850355864E-1
5.131379938E1,-7.507300377E-1,5.608539581E-1,-1.587994099E-1
5.132182550E1,-4.822982550E-1,1.848268509E-1,-2.822551727E-1
5.132982132E1,-1.660910547E-1,-1.500768661E-1,-1.656709909E-1
5.133781737E1,3.196983337E-1,-5.802965164E-1,9.321951866E-2
5.134581312E1,6.933396459E-1,-1.043642998E0,2.585824728E-1
5.135380817E1,9.879974127E-1,-1.475533485E0,3.526806831E-1
5.136180399E1,1.139490604E0,-1.923975945E0,3.211760521E-1
5.136979904E1,1.187880516E0,-2.262212276E0,1.886111498E-1
5.137782524E1,1.111987352E0,-2.540605545E0,-3.467321396E-2
5.138582137E1,9.864627719E-1,-2.735122204E0,-3.084002137E-1
5.139381735E1,8.172454238E-1,-2.869583130E0,-5.474415421E-1
5.140181224E1,5.896412730E-1,-2.912600994E0,-6.867057085E-1
5.140980852E1,3.608729243E-1,-3.003027916E0,-7.437620759E-1
5.141780365E1,2.691918612E-2,-3.145747185E0,-6.798065901E-1
5.142580032E1,-2.086145878E-1,-3.214092255E0,-4.794493318E-1
5.143382599E1,-2.949804664E-1,-3.297012329E0,-2.241723537E-1
5.144182196E1,-3.339362144E-1,-3.277599812E0,-1.023895741E-1
5.144981716E1,-3.618894815E-1,-3.220611572E0,-1.178168654E-1
5.145781252E1,-3.766955733E-1,-2.984673023E0,-3.190858364E-1
5.146580834E1,-3.908655643E-1,-2.703630447E0,-5.646890998E-1
5.147380401E1,-4.346293211E-1,-2.396361828E0,-7.320826650E-1
5.148183091E1,-3.170576692E-1,-2.084290504E0,-8.110609651E-1
5.148982572E1,-2.348952293E-1,-1.836611271E0,-9.467302561E-1
5.149782170E1,-1.893829107E-1,-1.617271423E0,-1.066003084E0
5.150581752E1,-5.080664158E-2,-1.445300102E0,-1.063005090E0
5.151381257E1,1.526584923E-1,-1.323142052E0,-9.038321972E-1
5.152180862E1,4.050859213E-1,-1.229295731E0,-6.378788352E-1
5.152980475E1,6.114210486E-1,-1.080085754E0,-4.569675326E-1
5.153783088E1,8.096572757E-1,-9.161491394E-1,-4.270581007E-1
5.154582601E1,7.209556103E-1,-6.774969101E-1,-5.655874610E-1
5.155382182E1,4.894393086E-1,-3.737602234E-1,-6.606599689E-1
5.156181695E1,2.950166762E-1,6.200695038E-2,-6.318904161E-1
5.156981293E1,1.432082653E-1,4.644489288E-1,-4.908739030E-1
5.157780813E1,-9.824049473E-2,8.789043427E-1,-5.278747082E-1
5.158580449E1,-3.509352803E-1,1.391528130E0,-6.762994528E-1
5.159383031E1,-4.518516660E-1,1.849173546E0,-8.758084774E-1
5.160182605E1,-5.079345703E-1,2.345409393E0,-1.062795162E0
5.160982118E1,-5.476796627E-1,2.691235542E0,-1.135291219E0
5.161781785E1,-6.245766878E-1,2.989548683E0,-9.977958202E-1
5.162581267E1,-6.723629832E-1,3.166041374E0,-8.933990598E-1
5.163380972E1,-7.596832514E-1,3.318634987E0,-7.279138565E-1
5.164180454E1,-6.750286818E-1,3.439989090E0,-3.492798805E-1
5.164983105E1,-6.099354029E-1,3.630521774E0,4.231005907E-2
5.165782703E1,-5.569124222E-1,3.753593445E0,1.798316240E-1
5.166582192E1,-4.893910289E-1,3.859446526E0,-1.058002114E-1
5.167381705E1,-3.687794209E-1,3.914834023E0,-2.654863596E-1
5.168181341E1,1.523752809E-1,3.862600327E0,-1.832867861E-1
5.168980792E1,6.201779842E-1,3.612119675E0,1.764203906E-1
5.169780490E1,1.113819242E0,3.359769821E0,6.102572083E-1
5.170583079E1,1.434433937E0,2.906891823E0,9.449182153E-1
5.171382646E1,1.571203232E0,2.468871117E0,1.141616821E0
5.172182282E1,1.509764910E0,1.990507126E0,1.419388533E0
5.172981794E1,1.376709700E0,1.550614357E0,1.688794374E0
5.173781315E1,1.143798590E0,1.203923225E0,1.815098286E0
5.174580951E1,8.522371054E-1,7.296962738E-1,1.638501525E0
5.175380433E1,5.311121345E-1,3.361034393E-1,1.249258876E0
5.176183138E1,1.562123895E-1,-1.636323929E-1,6.958353519E-1
5.176982651E1,-4.405230284E-2,-5.421886444E-1,5.081955791E-1
5.177782225E1,-1.058110595E-1,-8.186721802E-1,4.656798840E-1
5.178581799E1,6.714653969E-2,-1.129833221E0,4.098222852E-1
5.179381320E1,2.364582717E-1,-1.231292725E0,2.709703445E-1
5.180180894E1,5.457705259E-1,-1.431614876E0,-7.818800211E-2
5.180980530E1,9.419682026E-1,-1.625101089E0,-4.429688156E-1
5.181783081E1,1.288068175E0,-1.749099731E0,-6.906424761E-1
5.182582602E1,1.602921009E0,-1.961250782E0,-9.667922258E-1
5.183382268E1,1.781676173E0,-2.120080948E0,-1.124825358E0
5.184181773E1,1.829079986E0,-2.404993534E0,-1.437169313E0
5.184981294E1,1.566182613E0,-2.665074348E0,-1.692435265E0
5.185780868E1,1.213092566E0,-2.871644974E0,-1.841534376E0
5.186580504E1,7.464225292E-1,-3.046321392E0,-1.774586916E0
5.187383024E1,4.465501010E-1,-3.191708088E0,-1.461209536E0
5.188182607E1,1.702124029E-1,-3.212334633E0,-9.847849607E-1
5.188982204E1,-6.561052799E-2,-3.295456409E0,-5.891869664E-1
5.189781755E1,-2.304783762E-1,-3.290489674E0,-5.663070679E-1
5.190581414E1,-3.783013821E-1,-3.262123585E0,-7.054711580E-1
5.191380989E1,-4.094225764E-1,-3.186267376E0,-9.801467657E-1
5.192180478E1,-5.113060474E-1,-3.048288345E0,-1.253744483E0
5.192983160E1,-7.407256961E-1,-2.713832855E0,-1.498284578E0
5.193782704E1,-6.589831114E-1,-2.496476173E0,-1.610209465E0
5.194582309E1,-6.077284217E-1,-2.020312309E0,-1.345197082E0
5.195381814E1,-6.156745553E-1,-1.575222969E0,-1.093652725E0
5.196181358E1,-5.418151617E-1,-1.190109253E0,-9.348428249E-1
5.196980932E1,-5.742148161E-1,-7.980785370E-1,-8.879869580E-1
5.197780629E1,-5.454708934E-1,-5.069217682E-1,-8.925602436E-1
5.198583157E1,-2.420837879E-1,-1.897506714E-1,-9.936784506E-1
5.199382701E1,4.690700769E-2,1.750764847E-1,-1.222086906E0
5.200182244E1,2.160214484E-1,5.997838974E-1,-1.539255381E0
5.200981857E1,2.222007215E-1,1.168019295E0,-1.721591115E0
5.201781339E1,2.372996658E-1,1.651843071E0,-1.689621210E0
5.202580967E1,1.591482311E-1,2.202161789E0,-1.473850965E0
5.203380511E1,-1.443564892E-2,2.723971367E0,-1.175892591E0
5.204183101E1,-2.617166340E-1,3.078747749E0,-6.282353997E-1
5.204982675E1,-3.137185276E-1,3.393138885E0,1.074514985E-1
5.205782188E1,-1.497028768E-1,3.487069130E0,4.742343426E-1
5.206581824E1,3.281646967E-2,3.518372536E0,5.099410415E-1
5.207381367E1,1.077795327E-1,3.539730072E0,8.936989307E-2
5.208180949E1,-8.335977793E-2,3.556165695E0,-4.600257576E-1
5.208980462E1,-5.787252188E-1,3.795225143E0,-1.143318415E0
5.209783198E1,-9.223524332E-1,4.017546654E0,-1.414904237E0
5.210582711E1,-1.271626949E0,4.412185669E0,-1.606648445E0
5.211382285E1,-1.464773417E0,4.833050728E0,-1.543183446E0
5.212181836E1,-1.459772229E0,5.091086388E0,-1.516389608E0
5.212981341E1,-1.181091189E0,5.047565460E0,-1.431691051E0
5.213781039E1,-5.150972605E-1,4.549321175E0,-1.082618713E0
5.214580467E1,2.274779379E-1,3.816731453E0,-4.126531780E-1
5.215383180E1,7.770222425E-1,3.000756264E0,9.988486767E-2
5.216182692E1,8.765031695E-1,2.410246849E0,3.796346784E-1
5.216982198E1,7.049893141E-1,1.798560143E0,5.569306612E-1
5.217781810E1,4.548070133E-1,1.316418648E0,7.880290151E-1
5.218581408E1,2.693267167E-1,8.845939636E-1,1.201297760E0
5.219381013E1,1.857430935E-1,4.932556152E-1,1.612412453E0
5.220180618E1,1.770269871E-2,1.638107300E-1,1.783678532E0
5.220983215E1,-2.809761763E-1,-2.499151230E-1,1.549665689E0
